trial_number,trial_number_check,image_name_check,response_time,response_key,response_key_name,response_correct,reaction_time,onset_run,onset_block,onset_trial,onset_target,onset_mask,onset_response,offset_trial,offset_block,offset_run,duration_run,duration_run_frames,duration_block,duration_block_frames,duration_trial,duration_trial_frames,duration_jitter,duration_jitter_frames,duration_target,duration_target_frames,duration_mask,duration_mask_frames,duration_response,duration_response_frames
1,1,020_y_f_f_a.jpg,21206.9374488,2,right,NaN,0.705962299998646,21195.6385033,21195.6394499,21205.855095,21206.0906757,21206.1185207,21206.2314865,21207.7302785,NaN,21464.7583478,NaN,NaN,NaN,NaN,1.87518350000028,270.015243207013,0.235364399999526,33.8910702382648,0.0275068999981158,3.9608295896701,0.110962999999174,15.9780103823185,1.4987919999985,215.817111443366
2,2,084_m_f_h_a.jpg,21208.9540281,1,left,NaN,0.832228800001758,NaN,NaN,21207.9342261,21207.9699634,21208.0101094,21208.1217993,21209.6217055,NaN,NaN,NaN,NaN,NaN,NaN,1.68747940000321,242.986971994274,0.0356221000001824,5.1293700030383,0.0395624000011594,5.69674970911626,0.110131600002205,15.8582937399825,1.49990620000244,215.977549600509
3,3,035_m_f_h_a.jpg,21211.3849622,1,left,NaN,0.637314200001128,NaN,NaN,21209.8248611,21210.5797089,21210.6350699,21210.747648,21212.2472636,NaN,NaN,NaN,NaN,NaN,NaN,2.42240249999668,348.811516409878,0.754660699996748,108.666641130517,0.055179599999974,7.94553339129556,0.110947600001964,15.9757928745428,1.49961559999792,215.935704932563
4,4,068_m_m_h_a.jpg,21213.4536236,1,left,NaN,0.415021900000283,NaN,NaN,21212.4494745,21212.6850139,21212.9330586,21213.0386017,21214.5374289,NaN,NaN,NaN,NaN,NaN,NaN,2.08795439999813,300.652984158917,0.23536989999775,33.8918622052153,0.247866399997292,35.6912836946922,0.103996099998767,14.9748183224435,1.49882720000096,215.82218003384
5,5,134_y_f_f_a.jpg,21216.1167408,2,right,NaN,0.475592499999038,NaN,NaN,21214.7460248,21215.2840136,21215.5340173,21215.6411483,21217.1388292,NaN,NaN,NaN,NaN,NaN,NaN,2.39280440000221,344.549566489525,0.537559399999736,77.4053483987691,0.249623899999278,35.9443532158737,0.103753899998992,14.9399429665949,1.49768089999998,215.657119668519
6,6,105_y_m_h_a.jpg,21218.4651787,1,left,NaN,0.588931199999934,NaN,NaN,21217.3583987,21217.6948774,21217.7709837,21217.8762475,21219.3758583,NaN,NaN,NaN,NaN,NaN,NaN,2.01745960000335,290.502153285343,0.336349500001234,48.4323225142376,0.0759703000003356,10.9392702266724,0.103898900000786,14.9608221022898,1.49961080000139,215.935013761682
7,7,022_y_f_f_a.jpg,21221.7670689,2,right,NaN,1.29044260000228,NaN,NaN,21219.6952318,21220.3365755,21220.3712868,21220.4766263,21221.9759657,NaN,NaN,NaN,NaN,NaN,NaN,2.28073389999918,328.412082710127,0.641180999999051,92.3262409542501,0.0345643000000564,4.97705311015909,0.103932900001382,14.9657178996505,1.49933940000119,215.895933779877
8,8,062_y_m_h_a.jpg,21223.9522233,1,left,NaN,0.873941599998943,NaN,NaN,21222.1858145,21222.7229434,21222.9728828,21223.0782817,21224.577908,NaN,NaN,NaN,NaN,NaN,NaN,2.39209349999874,344.447201127771,0.536983999998483,77.3224942294147,0.249794999999722,35.9689905957527,0.104037299999618,14.9807508769108,1.49962629999936,215.937245668971
9,9,115_y_f_h_a.jpg,21226.3715251,1,left,NaN,0.748606900000595,NaN,NaN,21224.7784082,21225.4204111,21225.5175201,21225.6229182,21227.1225599,NaN,NaN,NaN,NaN,NaN,NaN,2.3441516999992,337.543867781113,0.641832799999975,92.4200962680216,0.096968999998353,13.9629578215104,0.103950100001384,14.9681945970957,1.49964170000021,215.939463177271
10,10,090_y_f_h_a.jpg,21228.0506387,2,right,NaN,0.470667199999298,NaN,NaN,21227.3181522,21227.4467468,21227.4747462,21227.5799715,21229.079373,NaN,NaN,NaN,NaN,NaN,NaN,1.76122079999914,253.605293910141,0.128460099997028,18.4974884554443,0.027872099999513,4.01341621236406,0.103800099997898,14.9465954909695,1.49940150000111,215.904875809595
11,11,011_m_f_f_a.jpg,21230.3038577,2,right,NaN,0.637673900000664,NaN,NaN,21229.3089336,21229.5398629,21229.5609079,21229.6661838,21231.1654188,NaN,NaN,NaN,NaN,NaN,NaN,1.85648519999813,267.322799495432,0.230777099997795,33.2305263898197,0.0208988999984285,3.00931698995532,0.103989000002912,14.9737959653741,1.49923499999932,215.880900802093
12,12,089_y_m_f_a.jpg,21232.1751382,2,right,NaN,0.637363800000458,NaN,NaN,21231.3636196,21231.3907718,21231.4324171,21231.5377744,21233.0374613,NaN,NaN,NaN,NaN,NaN,NaN,1.67384169999787,241.023224508373,0.0269851999983075,3.88570790033712,0.0414947999997821,5.97500378697118,0.104058000000805,14.9837315536578,1.49968689999878,215.945971707559
13,13,072_y_m_h_a.jpg,21234.4688964,1,left,NaN,0.665044500001386,NaN,NaN,21233.2384503,21233.6707994,21233.6982844,21233.8038519,21235.3031466,NaN,NaN,NaN,NaN,NaN,NaN,2.06469629999992,297.303956435739,0.432214600001316,62.2363253180075,0.027350700001989,3.93833772157126,0.104138999999122,14.9953950704526,1.49929469999915,215.889497246108
14,14,111_m_f_h_a.jpg,21236.5291702,1,left,NaN,0.582191599998623,NaN,NaN,21235.5125662,21235.7443435,21235.8415738,21235.9469786,21237.4465681,NaN,NaN,NaN,NaN,NaN,NaN,1.93400190000102,278.484742102052,0.231638500001281,33.354562854219,0.0970926000009058,13.9807554849122,0.104026799999701,14.9792389395291,1.49958949999927,215.931946688379
15,15,071_y_f_f_a.jpg,21238.6836729,2,right,NaN,0.478281699997751,NaN,NaN,21237.6497939,21238.0865717,21238.1002845,21238.2053912,21239.7050066,NaN,NaN,NaN,NaN,NaN,NaN,2.05521270000099,295.938374581916,0.436639200001082,62.8734413362694,0.0135608999989927,1.9526887429062,0.103751599999669,14.9396117804061,1.49961540000004,215.93567613406
16,16,038_m_m_h_a.jpg,21240.611334,2,right,NaN,0.526348900002631,NaN,NaN,21239.90699,21239.9308651,21239.9795569,21240.0849851,21241.5844229,NaN,NaN,NaN,NaN,NaN,NaN,1.67743289999999,241.540335896127,0.0237238000008801,3.41608574682491,0.0485613999990164,6.99255205221544,0.104079099997762,14.9867698274108,1.49943780000103,215.910102793144
17,17,045_m_m_h_a.jpg,21243.2981968,2,right,NaN,0.998531899997033,NaN,NaN,21241.7807574,21242.1176902,21242.1942183,21242.2996649,21243.7989013,NaN,NaN,NaN,NaN,NaN,NaN,2.01814390000072,290.600688404822,0.336799900000187,48.4971774285742,0.0763980999981868,11.0008708756029,0.104038600002241,14.9809380695372,1.49923639999906,215.881102393709
18,18,014_m_m_f_a.jpg,21245.661338,2,right,NaN,1.29694240000026,NaN,NaN,21243.9991729,21244.2311574,21244.2589946,21244.3643956,21245.8636386,NaN,NaN,NaN,NaN,NaN,NaN,1.86446570000044,268.471943911984,0.231812300000456,33.3795890178166,0.0276987999968696,3.98846204528573,0.104103900001064,14.9903408800161,1.49924299999839,215.882052754259
19,19,094_m_m_h_a.jpg,21247.2110003,1,left,NaN,0.526547299999947,NaN,NaN,21246.0698414,21246.5028534,21246.5792077,21246.684453,21248.1841745,NaN,NaN,NaN,NaN,NaN,NaN,2.11433309999848,304.451359675809,0.432859699998517,62.3292158711917,0.0762066999996023,10.9733104170304,0.104017900001054,14.9779573927902,1.49972149999667,215.950953900952
20,20,081_y_m_f_a.jpg,21249.6634486,2,right,NaN,0.484823800001323,NaN,NaN,21248.4023131,21249.0453844,21249.0733487,21249.1786248,21250.6780988,NaN,NaN,NaN,NaN,NaN,NaN,2.27578569999969,327.699571413873,0.642923499999597,92.5771505646618,0.0278045999984897,4.00369661468587,0.103841700001794,14.9525856434904,1.49947400000019,215.91531537718
21,21,013_y_m_f_a.jpg,21251.8921556,2,right,NaN,0.533099099997344,NaN,NaN,21250.9932571,21251.2257746,21251.2536697,21251.3590565,21252.8584448,NaN,NaN,NaN,NaN,NaN,NaN,1.86518770000112,268.575907607152,0.232388799999171,33.4626015802469,0.02777160000187,3.99894481193531,0.103962299999694,14.9699513241097,1.49938829999883,215.90297508797
22,22,006_m_f_h_a.jpg,21254.1419449,2,right,NaN,0.49880739999935,NaN,NaN,21253.0907161,21253.5237345,21253.5376513,21253.6431375,21255.1425099,NaN,NaN,NaN,NaN,NaN,NaN,2.05179380000118,295.446073367155,0.432868899999448,62.3305406164708,0.0137759000026563,1.98364746149493,0.104023899999447,14.9788213567838,1.49937240000145,215.900685583152
23,23,122_m_f_f_a.jpg,21256.3135205,2,right,NaN,0.37405310000031,NaN,NaN,21255.3532526,21255.5841865,21255.834178,21255.9394674,21257.438966,NaN,NaN,NaN,NaN,NaN,NaN,2.0857133999998,300.330293521135,0.230776699998387,33.23046879229,0.249850100000913,35.9769246673902,0.103896199998417,14.9604333180474,1.49949860000197,215.918857630759
24,24,026_m_m_f_a.jpg,21259.7753314,1,left,NaN,1.22047530000054,NaN,NaN,21257.7722718,21258.4145886,21258.4492836,21258.5548561,21260.0546414,NaN,NaN,NaN,NaN,NaN,NaN,2.28236959999776,328.647613757053,0.642185299999255,92.4708541661346,0.0345545999989554,4.97565636783686,0.104100700002164,14.9898800992545,1.49978529999862,215.960140720826
25,25,106_y_f_f_a.jpg,21261.0124402,2,right,NaN,0.54702190000171,NaN,NaN,21260.2654885,21260.2905593,21260.3606157,21260.4654183,21261.9648168,NaN,NaN,NaN,NaN,NaN,NaN,1.69932829999743,244.693142944303,0.0249340999980632,3.59036172999817,0.069897100001981,10.0647656384013,0.103407700000389,14.8900922310157,1.4993985000001,215.904443827336
26,26,016_y_m_h_a.jpg,21262.9757449,2,right,NaN,0.533433399999922,NaN,NaN,21262.2858054,21262.309351,21262.3373963,21262.4423115,21263.9420104,NaN,NaN,NaN,NaN,NaN,NaN,1.65620499999932,238.483644867513,0.023382400002447,3.36692618265009,0.0278021000012814,4.00333662999412,0.103591899998719,14.9166159324815,1.4996988999992,215.94769963607
27,27,019_m_f_h_a.jpg,21265.4671529,1,left,NaN,0.415400900001259,NaN,NaN,21264.2701622,21264.9115574,21264.9462799,21265.051752,21266.5513431,NaN,NaN,NaN,NaN,NaN,NaN,2.28118090000135,328.476448045199,0.641254900001513,92.3368821139754,0.034587800000736,4.98043697013806,0.104071199999453,14.9856322747581,1.49959110000054,215.932177079021
28,28,104_m_m_h_a.jpg,21268.3635092,1,left,NaN,0.97776050000175,NaN,NaN,21266.7495365,21267.1832733,21267.2803123,21267.3857487,21268.8852298,NaN,NaN,NaN,NaN,NaN,NaN,2.13569329999882,307.527101115536,0.433600600001228,62.4359010539613,0.0968850999997812,13.9508767219703,0.103975999998511,14.971924042253,1.49948109999968,215.916337734773
29,29,071_y_f_f_a.jpg,21270.774178,1,left,NaN,1.13028649999978,NaN,NaN,21269.0897426,21269.5244731,21269.5384094,21269.6438915,21271.1432626,NaN,NaN,NaN,NaN,NaN,NaN,2.05351999999766,295.69463587417,0.434597100000246,62.5793911121827,0.0138097000017297,1.98851445982879,0.104194200001075,15.0033435416034,1.49937109999883,215.900498390525
30,30,132_y_f_f_a.jpg,21272.2374792,2,right,NaN,0.457229999999981,NaN,NaN,21271.3423829,21271.4737105,21271.6749489,21271.7802492,21273.2800454,NaN,NaN,NaN,NaN,NaN,NaN,1.93766250000044,279.011846675619,0.131192600001668,18.8909521635646,0.201100600002974,28.9572873368773,0.103925999999774,14.9647243405602,1.49979619999795,215.961710255737
31,31,085_y_f_f_a.jpg,21274.6765444,2,right,NaN,0.831986799999868,NaN,NaN,21273.4797759,21273.7115923,21273.739362,21273.8445576,21275.3441809,NaN,NaN,NaN,NaN,NaN,NaN,1.86440500000026,268.463203473882,0.231675600000017,33.359905032828,0.0276343000004999,3.97917443039012,0.10384989999875,14.9537663941594,1.49962329999835,215.936813686712
32,32,050_m_f_h_a.jpg,21277.679598,2,right,NaN,1.1791596999974,NaN,NaN,21275.5517032,21276.2981681,21276.3952033,21276.5004383,21278.0002239,NaN,NaN,NaN,NaN,NaN,NaN,2.44852069999979,352.5723814804,0.746332099999563,107.46737239025,0.0968980000034207,13.9527342455781,0.103854700002557,14.9544575660877,1.49978559999727,215.960183918842
33,33,085_y_f_h_a.jpg,21279.8522572,2,right,NaN,1.29020769999988,NaN,NaN,21278.1971917,21278.4291776,21278.4567597,21278.5620495,21280.0616383,NaN,NaN,NaN,NaN,NaN,NaN,1.86444660000052,268.469193625879,0.231856399997923,33.3859391545054,0.0274582999991253,3.95383147959325,0.104017100002238,14.9778421977307,1.49958880000122,215.931845892833
34,34,054_y_f_f_a.jpg,21282.1405958,2,right,NaN,0.859389199998986,NaN,NaN,21280.2835715,21281.0297284,21281.1757757,21281.2812066,21282.7805473,NaN,NaN,NaN,NaN,NaN,NaN,2.49697580000065,359.549626966696,0.74600460000147,107.420214343246,0.145922100000462,21.0119123386575,0.103948299998592,14.9679354074261,1.49934070000018,215.89612097198
35,35,082_m_m_f_a.jpg,21284.5828732,2,right,NaN,0.825202600000921,NaN,NaN,21282.9831466,21283.62464,21283.6528013,21283.7576706,21285.2572576,NaN,NaN,NaN,NaN,NaN,NaN,2.27411099999881,327.458424599156,0.641345700001693,92.3499567726058,0.0280316999997012,4.03639766077519,0.103613800001767,14.9197694023416,1.49958699999843,215.931586703163
36,36,092_m_m_h_a.jpg,21286.5114229,1,left,NaN,0.561200000000099,NaN,NaN,21285.4602339,21285.7963047,21285.8448537,21285.9502229,21287.4497853,NaN,NaN,NaN,NaN,NaN,NaN,1.98955139999816,286.483538887409,0.335927000000083,48.3714850332308,0.0484157999999297,6.97158652048783,0.103964999998425,14.9703401078282,1.49956240000029,215.928044450108
37,37,115_y_f_f_a.jpg,21289.2443967,1,left,NaN,0.651376599998912,NaN,NaN,21287.6459198,21288.3904142,21288.4875858,21288.5930201,21290.0925653,NaN,NaN,NaN,NaN,NaN,NaN,2.44664550000016,352.302363861344,0.744340999997803,107.180665861943,0.0970268999990367,13.9712950763798,0.10405929999979,14.9839187457604,1.49954520000028,215.925567752663
38,38,061_m_f_h_a.jpg,21291.0814129,1,left,NaN,0.457291700000496,NaN,NaN,21290.2900399,21290.3173879,21290.5187821,21290.6241212,21292.1234678,NaN,NaN,NaN,NaN,NaN,NaN,1.83342790000097,264.002685775132,0.0272234000003664,3.92000728036464,0.201265800002147,28.9810751517523,0.103996500001813,14.9748759204971,1.49934660000145,215.896970536984
39,39,043_m_f_h_a.jpg,21293.2095895,1,left,NaN,0.470912699998735,NaN,NaN,21292.3252758,21292.5571186,21292.6332889,21292.7386768,21294.2382889,NaN,NaN,NaN,NaN,NaN,NaN,1.91301309999835,275.462480047516,0.231693599998835,33.3624969253326,0.0760231999993266,10.9468875111105,0.103996599998936,14.9748903194866,1.49961210000038,215.935200953785
40,40,028_y_f_h_a.jpg,21295.8238314,1,left,NaN,0.699890200001391,NaN,NaN,21294.4395286,21294.9769137,21295.0185922,21295.1239412,21296.6233074,21296.62777,NaN,NaN,NaN,NaN,NaN,2.18377880000116,314.451126405787,0.537249900000461,77.3607822442691,0.0415238999994472,5.97919401341402,0.103993100001389,14.9743863407086,1.49936620000153,215.899792820131
41,41,069_y_f_h_a.jpg,21342.6245745,1,left,NaN,0.665361400002439,NaN,21330.9442108,21341.1649091,21341.5970024,21341.8468914,21341.9592131,21343.4588615,NaN,NaN,NaN,NaN,NaN,NaN,2.2939523999994,330.315467894772,0.4319488000001,62.1980517026666,0.249746199999208,35.9619636866491,0.110769700000674,15.9501763350869,1.4996484000003,215.940427937334
42,42,114_y_m_h_a.jpg,21345.0197925,1,left,NaN,0.554348599998775,NaN,NaN,21343.6539049,21344.2005437,21344.3532711,21344.4654439,21345.9651797,NaN,NaN,NaN,NaN,NaN,NaN,2.31127480000214,332.809790210252,0.546498900002916,78.6925830974039,0.152590300000156,21.9720933794304,0.110837100000936,15.9598815332517,1.49973580000005,215.953013016176
43,43,025_y_m_f_a.jpg,21347.2680829,2,right,NaN,0.623493499999313,NaN,NaN,21346.1637275,21346.5044153,21346.5460223,21346.6445894,21348.1441479,NaN,NaN,NaN,NaN,NaN,NaN,1.98042039999928,285.168729331212,0.340560900000128,49.0387390035803,0.0414893999986816,5.97422621901025,0.0973216999991564,14.0137445186502,1.49955849999969,215.927482873277
44,44,098_y_f_h_a.jpg,21349.7465216,1,left,NaN,1.11585179999747,NaN,NaN,21348.3446418,21348.4765243,21348.5184527,21348.6306698,21350.129244,NaN,NaN,NaN,NaN,NaN,NaN,1.78460220000125,256.972076098705,0.131744000002072,18.9703504758969,0.0417922000015096,6.01782761397062,0.110813800001779,15.9565264722995,1.49857419999898,215.785749542069
45,45,097_m_f_h_a.jpg,21351.6851909,1,left,NaN,1.07504970000082,NaN,NaN,21350.3247765,21350.456145,21350.5047194,21350.6101412,21352.1097204,NaN,NaN,NaN,NaN,NaN,NaN,1.78494389999832,257.021278860896,0.131244199998036,18.8983822553763,0.0484408000011172,6.97518637159616,0.104067200001737,14.9850562989369,1.49957920000088,215.930463550024
46,46,108_m_m_h_a.jpg,21353.5697699,1,left,NaN,0.665166400001908,NaN,NaN,21352.3105177,21352.6464187,21352.7991963,21352.9046035,21354.4042196,NaN,NaN,NaN,NaN,NaN,NaN,2.09370190000118,301.480589889853,0.335755100000824,48.3467324582923,0.152645000001939,21.9799698535381,0.10402520000207,14.9790085494102,1.49961610000173,215.93577693013
47,47,052_m_f_f_a.jpg,21355.5720769,2,right,NaN,0.581773499998235,NaN,NaN,21354.6062295,21354.7334306,21354.8849148,21354.9903034,21356.489477,NaN,NaN,NaN,NaN,NaN,NaN,1.88324749999811,271.176411125051,0.127063500000077,18.2963863831193,0.151356599999417,21.7944479352677,0.103969399999187,14.9709736817029,1.49917359999745,215.872059567922
48,48,103_m_f_f_a.jpg,21357.5422101,2,right,NaN,0.540421000001515,NaN,NaN,21356.6917762,21356.8199722,21356.8963732,21357.0017891,21358.5011517,NaN,NaN,NaN,NaN,NaN,NaN,1.80937549999726,260.539283587179,0.128043299999263,18.4374717409386,0.076256000000285,10.9804093231771,0.103975899997749,14.9719096427396,1.49936259999959,215.899274441316
49,49,008_y_m_f_a.jpg,21360.3620632,2,right,NaN,0.679389099997934,NaN,NaN,21358.8160211,21359.5633046,21359.5771973,21359.6826741,21361.1823149,NaN,NaN,NaN,NaN,NaN,NaN,2.36629380000159,340.73219815905,0.747131500000251,107.582481223922,0.0137477999996918,1.97960122861448,0.104086899998947,14.9878929810739,1.49964080000063,215.939333582698
50,50,051_m_m_f_a.jpg,21362.696849,2,right,NaN,0.769281000000774,NaN,NaN,21361.3887806,21361.7248687,21361.8222002,21361.927568,21363.4269283,NaN,NaN,NaN,NaN,NaN,NaN,2.03814770000099,293.481116332082,0.335948500000086,48.3745809050373,0.0972048000003269,13.9969116158357,0.103964300000371,14.9702393122821,1.49936030000026,215.898943255127
51,51,056_m_m_f_a.jpg,21365.1100588,2,right,NaN,0.477919400000246,NaN,NaN,21363.6274085,21364.3741774,21364.5268338,21364.6321394,21366.1318946,NaN,NaN,NaN,NaN,NaN,NaN,2.50448609999876,360.631065386213,0.746641900001123,107.511981743291,0.152517700000317,21.9616394123315,0.10396910000054,14.9709304836866,1.49975519999862,215.955806500297
52,52,116_m_m_h_a.jpg,21367.6840299,1,left,NaN,0.408160399998451,NaN,NaN,21366.3275977,21366.9690417,21367.1706326,21367.2758695,21368.7752785,NaN,NaN,NaN,NaN,NaN,NaN,2.44768079999994,352.451440888331,0.641312100000505,92.3451185727749,0.201459400002932,29.0089523975241,0.103811700002552,14.9482658224747,1.49940900000001,215.905955764718
53,53,010_y_f_h_a.jpg,21370.027484,2,right,NaN,0.700016399998276,NaN,NaN,21369.0874853,21369.2148857,21369.2287812,21369.3274676,21370.8268068,NaN,NaN,NaN,NaN,NaN,NaN,1.7393215000011,250.451925285133,0.127253100003145,18.3236876530699,0.0137445000000298,1.97912604833942,0.0973658000002615,14.0200946558628,1.49933919999967,215.895904980851
54,54,101_y_f_f_a.jpg,21372.5026552,2,right,NaN,0.762300800000958,NaN,NaN,21371.052588,21371.5930469,21371.6415479,21371.7403544,21373.2394253,NaN,NaN,NaN,NaN,NaN,NaN,2.18683729999975,314.891532169259,0.540320500000234,77.8029303357653,0.0483592999989924,6.96345085723445,0.0974023000017041,14.0253504384391,1.49907089999761,215.857271380294
55,55,049_y_m_h_a.jpg,21374.5326049,1,left,NaN,0.713848100000178,NaN,NaN,21373.4331086,21373.5605757,21373.7133572,21373.8187568,21375.3184067,NaN,NaN,NaN,NaN,NaN,NaN,1.88529810000182,271.471685298871,0.127320400002645,18.3333784517213,0.152635999998893,21.9786739067619,0.104023200001393,14.9787205612377,1.4996499000008,215.940643928464
56,56,071_y_f_h_a.jpg,21376.6220876,1,left,NaN,0.852287400000932,NaN,NaN,21375.5220259,21375.6501757,21375.6639854,21375.7698002,21377.2687142,NaN,NaN,NaN,NaN,NaN,NaN,1.74668829999791,251.512700560084,0.127999999996973,18.4312367987854,0.013672699999006,1.96878727629994,0.104394600002706,15.0321999469521,1.49891399999979,215.834678716125
57,57,134_y_f_h_a.jpg,21378.9237966,1,left,NaN,0.422392899999977,NaN,NaN,21377.5046794,21378.1463978,21378.3960882,21378.5014037,21380.0009201,NaN,NaN,NaN,NaN,NaN,NaN,2.49624069999845,359.443776949417,0.641577700000198,92.3833633890891,0.249528200001805,35.9305729868494,0.103902099999686,14.9612828830515,1.49951639999927,215.921420724237
58,58,132_y_f_h_a.jpg,21380.9651902,1,left,NaN,0.331893800001126,NaN,NaN,21380.198865,21380.3262569,21380.5278508,21380.6332964,21382.1328586,NaN,NaN,NaN,NaN,NaN,NaN,1.9339936000033,278.48354695187,0.127261000001454,18.3248252057226,0.201470500000141,29.0105507309384,0.104121899999882,14.9929327725208,1.4995622000024,215.928015651605
59,59,077_m_m_h_a.jpg,21383.3782712,2,right,NaN,0.477756399999635,NaN,NaN,21382.3338871,21382.7671563,21382.7951655,21382.9005148,21384.3999067,NaN,NaN,NaN,NaN,NaN,NaN,2.06601959999898,297.494503745419,0.433112699996855,62.3656463624384,0.0278489999982412,4.01008994991482,0.103899300000194,14.9608796998196,1.49939190000077,215.903493466786
60,60,040_y_f_h_a.jpg,21386.0948297,1,left,NaN,0.498550899999827,NaN,NaN,21384.6688868,21385.4144462,21385.4907048,21385.5962788,21387.0956969,NaN,NaN,NaN,NaN,NaN,NaN,2.4268101000016,349.446184530245,0.745414600001823,107.335257861175,0.0761071999986598,10.958983010164,0.104228200001671,15.008239338964,1.49941810000018,215.907266110483
61,61,057_y_m_f_a.jpg,21388.4001175,2,right,NaN,0.540388400000666,NaN,NaN,21387.3211688,21387.5530323,21387.7543343,21387.8597291,21389.3593244,NaN,NaN,NaN,NaN,NaN,NaN,2.0381555999993,293.482253884735,0.231713400000444,33.3653480075068,0.201109500001621,28.9585688836162,0.104006400000799,14.9763014613223,1.49959529999978,215.932781853869
62,62,070_m_m_f_a.jpg,21390.2393969,2,right,NaN,0.533263900000748,NaN,NaN,21389.5636005,21389.5870419,21389.6009688,21389.706133,21391.2054648,NaN,NaN,NaN,NaN,NaN,NaN,1.64186429999972,236.418669574083,0.0233079999998154,3.35621302588161,0.0137834000015573,1.98472741661789,0.103886400000192,14.9590221767357,1.49933180000153,215.894839425241
63,63,006_m_f_f_a.jpg,21392.6812406,2,right,NaN,0.484753000000637,NaN,NaN,21391.4357724,21392.0772605,21392.0911717,21392.1964876,21393.6959964,NaN,NaN,NaN,NaN,NaN,NaN,2.26022400000147,325.458779400861,0.641359400000511,92.3519294907491,0.0137831000029109,1.98468421860156,0.103929199998674,14.9651851213218,1.49950880000324,215.920326370124
64,64,028_y_f_h_a.jpg,21395.0673802,1,left,NaN,0.484937299999729,NaN,NaN,21393.8970872,21394.4355775,21394.4771442,21394.5824429,21396.0821829,NaN,NaN,NaN,NaN,NaN,NaN,2.18509570000242,314.640752153944,0.538362499999494,77.5209900102456,0.0414256000003661,5.96503939966069,0.103890000002139,14.9595405555509,1.49974000000293,215.953617791548
65,65,020_y_f_f_a.jpg,21397.6606764,1,left,NaN,0.811201299999084,NaN,NaN,21396.2831674,21396.7161897,21396.7440878,21396.8494751,21398.3487655,NaN,NaN,NaN,NaN,NaN,NaN,2.06559809999817,297.433810258499,0.432873999998264,62.3312749858916,0.0277730999987398,3.99916080254082,0.10396149999724,14.9698361285264,1.49929039999915,215.888878071747
66,66,007_m_m_f_a.jpg,21399.6483964,2,right,NaN,0.637635600000067,NaN,NaN,21398.6628921,21398.8984255,21398.9056407,21399.0107608,21400.5102219,NaN,NaN,NaN,NaN,NaN,NaN,1.84732979999899,266.004476484683,0.235388400000375,33.8945260952869,0.00708039999881294,1.01953538290099,0.103759000001446,14.9406773365395,1.49946110000019,215.913457854096
67,67,025_y_m_h_a.jpg,21401.8276227,2,right,NaN,0.540281099998538,NaN,NaN,21400.7070653,21401.1402875,21401.1820387,21401.2873416,21402.7868828,NaN,NaN,NaN,NaN,NaN,NaN,2.07981749999817,299.48131907524,0.433087699999305,62.3620465118539,0.0416247000030125,5.9937086129068,0.103855499997735,14.9545727606233,1.49954119999893,215.924991776318
68,68,069_y_f_f_a.jpg,21404.146966,2,right,NaN,0.672381200001837,NaN,NaN,21402.9916376,21403.1193155,21403.3692023,21403.4745848,21404.9741002,NaN,NaN,NaN,NaN,NaN,NaN,1.98246260000087,285.462793954812,0.127537100001064,18.3645819594185,0.24973780000073,35.9607541369533,0.10403210000004,14.9800021079767,1.49951540000257,215.921276730674
69,69,108_m_m_h_a.jpg,21406.5403095,1,left,NaN,0.776640700001735,NaN,NaN,21405.1697528,21405.5055318,21405.6582794,21405.7636688,21407.2632046,NaN,NaN,NaN,NaN,NaN,NaN,2.09345179999946,301.444576980828,0.335625499999878,48.3280708308968,0.15259949999745,21.9734181241857,0.104022600000462,14.9786341646812,1.49953580000147,215.924214208881
70,70,045_m_m_f_a.jpg,21408.4801913,2,right,NaN,0.609680699999444,NaN,NaN,21407.4630615,21407.6955944,21407.7718487,21407.8705106,21409.3698655,NaN,NaN,NaN,NaN,NaN,NaN,1.90680400000201,274.568406669839,0.232401400000526,33.4644159053144,0.0761195000013686,10.9607541372152,0.0973182000016095,14.0132405398722,1.49935489999916,215.898165687166
71,71,050_m_f_f_a.jpg,21410.4072974,2,right,NaN,0.512580900001922,NaN,NaN,21409.573332,21409.6988562,21409.7894467,21409.8947165,21411.3941034,NaN,NaN,NaN,NaN,NaN,NaN,1.82077140000183,262.180225239714,0.125374800001737,18.0532236522423,0.0904676999998628,13.0268093857686,0.103976800000964,14.9720392378363,1.49938690000272,215.902773496878
72,72,116_m_m_f_a.jpg,21412.8704086,2,right,NaN,0.540386699998635,NaN,NaN,21411.5901908,21412.0233003,21412.2246723,21412.3300219,21413.8297223,NaN,NaN,NaN,NaN,NaN,NaN,2.23953149999943,322.479182779724,0.432966399999714,62.3445800351647,0.201244899999438,28.9780656759784,0.103948200001469,14.9679210084366,1.49970039999971,215.9479156272
73,73,080_m_f_h_a.jpg,21414.8841267,1,left,NaN,0.588826899998821,NaN,NaN,21414.0310961,21414.1624017,21414.1898213,21414.2952998,21415.7949906,NaN,NaN,NaN,NaN,NaN,NaN,1.76389449999988,253.990290768295,0.131146700001409,18.8843428372063,0.0272678000001179,3.92640061559358,0.104107400002249,14.990844859318,1.49969079999937,215.946533284391
74,74,103_m_f_h_a.jpg,21417.4147732,1,left,NaN,0.588444299999537,NaN,NaN,21416.0009491,21416.6441503,21416.7205583,21416.8263289,21418.3252776,NaN,NaN,NaN,NaN,NaN,NaN,2.32432850000259,334.689445177552,0.643057799999951,92.5964889639483,0.0762553000022308,10.9803085276311,0.104165900000226,14.99926851022,1.49894870000207,215.839675309556
75,75,122_m_f_f_a.jpg,21419.9067331,2,right,NaN,0.477489500000956,NaN,NaN,21418.5351278,21419.0740112,21419.3251073,21419.4292436,21420.928247,NaN,NaN,NaN,NaN,NaN,NaN,2.39311919999818,344.594895811949,0.538744399997086,77.5759813328177,0.250968600001215,36.1379819983707,0.102851200001169,14.8099595492626,1.49900340000022,215.84755178314
76,76,020_y_f_h_a.jpg,21422.0168591,2,right,NaN,0.533170200000313,NaN,NaN,21421.1253762,21421.3569456,21421.3846995,21421.4836889,21422.9828023,NaN,NaN,NaN,NaN,NaN,NaN,1.85742609999943,267.458283485496,0.231410000000324,33.3216602165138,0.0275994000003266,3.97414903845662,0.0976905000024999,14.0668495201594,1.49911340000108,215.863391127388
77,77,111_m_f_h_a.jpg,21424.3275964,1,left,NaN,0.700191899999481,NaN,NaN,21423.1928272,21423.4247654,21423.5219699,21423.6274045,21425.1267913,NaN,NaN,NaN,NaN,NaN,NaN,1.93396410000059,278.479299127374,0.2317910999991,33.3765363440265,0.0970574000020861,13.9756868949624,0.104094700000132,14.989016134737,1.49938680000196,215.902759097365
78,78,080_m_f_f_a.jpg,21426.1557433,2,right,NaN,0.457063000001654,NaN,NaN,21425.3339042,21425.5657164,21425.5934924,21425.6986803,21427.1985991,NaN,NaN,NaN,NaN,NaN,NaN,1.86469489999945,268.504947345235,0.231652899998153,33.3566363679085,0.0276309000000765,3.97868485060167,0.103842200001964,14.9526576405335,1.49991880000016,215.979363925053
79,79,116_m_m_f_a.jpg,21428.4156809,2,right,NaN,0.588572900000145,NaN,NaN,21427.3988096,21427.5270236,21427.7233916,21427.827108,21429.3261352,NaN,NaN,NaN,NaN,NaN,NaN,1.9273256000015,277.5233947096,0.128067300000112,18.4409275979607,0.19624499999918,28.2581098878756,0.102341900001193,14.7366233859704,1.49902719999955,215.850978841135
80,80,082_m_m_h_a.jpg,21430.9129203,2,right,NaN,0.811212100001285,NaN,NaN,21429.5243703,21429.9615659,21429.9963662,21430.1017082,21431.6012316,21431.6058187,NaN,NaN,NaN,NaN,NaN,2.07686130000002,299.055643901866,0.437042699999438,62.9315429301614,0.0346489000003203,4.98923500576907,0.104006300000037,14.9762870618089,1.49952340000164,215.92242868284
81,81,094_m_m_h_a.jpg,21493.3895792,1,left,NaN,0.606666799998493,NaN,21482.3261526,21492.5555293,21492.6007807,21492.6817084,21492.7829124,21494.2792298,NaN,NaN,NaN,NaN,NaN,NaN,1.72370049999881,248.199878238236,0.0445433999993838,6.41391381865454,0.080637500002922,11.611192131217,0.0987950999988243,14.225749653295,1.49631739999677,215.458425918661
82,82,087_m_m_f_a.jpg,21495.6554072,2,right,NaN,0.679316599998856,NaN,NaN,21494.4795873,21494.8220967,21494.8637704,21494.9760906,21496.4757481,NaN,NaN,NaN,NaN,NaN,NaN,1.99616080000123,287.432107552668,0.342364399999497,49.2978927563346,0.0415457999988575,5.98228201536964,0.111018600000534,15.9858415092013,1.49965750000047,215.939375140536
83,83,037_y_m_h_a.jpg,21497.9471326,1,left,NaN,0.664977799999178,NaN,NaN,21496.670358,21497.107169,21497.1769354,21497.2821548,21498.7813368,NaN,NaN,NaN,NaN,NaN,NaN,2.11097879999943,303.965034020537,0.436675200002355,62.8779370141836,0.0695889000016905,10.0202770186377,0.103838500002894,14.9519612352477,1.49918199999956,215.870906724865
84,84,038_m_m_f_a.jpg,21500.1287377,2,right,NaN,0.561687600002188,NaN,NaN,21498.9801068,21499.4132767,21499.4619334,21499.5670501,21501.0667001,NaN,NaN,NaN,NaN,NaN,NaN,2.08659329999864,300.453705845499,0.432984999999462,62.3465760315805,0.0484450999974797,6.97572920621763,0.103793699996459,14.9455103720367,1.49965000000157,215.938295197232
85,85,081_y_m_f_a.jpg,21502.9666119,2,right,NaN,0.818154599997797,NaN,NaN,21501.2701639,21502.0150988,21502.043078,21502.1484573,21503.6476636,NaN,NaN,NaN,NaN,NaN,NaN,2.37749970000004,342.342034507654,0.744785099999717,107.243439990712,0.0278493000005255,4.01008926385722,0.104125699999713,14.9933158697916,1.49920629999906,215.874405741612
86,86,080_m_f_h_a.jpg,21505.4427012,1,left,NaN,0.714090700002998,NaN,NaN,21503.8508302,21504.5954735,21504.6231515,21504.7286105,21506.2280159,NaN,NaN,NaN,NaN,NaN,NaN,2.37718569999925,342.296820874563,0.744484999999258,107.200227852888,0.0275549999969371,3.96771228186051,0.104088100000808,14.9879017533892,1.49940540000171,215.903074641119
87,87,006_m_f_f_a.jpg,21507.4280462,2,right,NaN,0.512852799998655,NaN,NaN,21506.4606192,21506.7960294,21506.8100423,21506.9151934,21508.4152287,NaN,NaN,NaN,NaN,NaN,NaN,1.95460950000052,281.449033578491,0.335259200001019,48.2747975176423,0.0137976000005438,1.98675038970935,0.103872300001967,14.9568281803199,1.50003529999958,215.993775492441
88,88,041_y_m_h_a.jpg,21509.8992878,1,left,NaN,0.540301299999555,NaN,NaN,21508.618313,21509.1566122,21509.2535826,21509.3589865,21510.8585713,NaN,NaN,NaN,NaN,NaN,NaN,2.24025830000028,322.580307473746,0.5381632000026,77.4914439678105,0.0968460000003688,13.9450939464068,0.104008400001476,14.9764255542873,1.49958479999987,215.928906888484
89,89,035_m_f_f_a.jpg,21511.9723524,2,right,NaN,0.331929399999353,NaN,NaN,21511.0600402,21511.4931714,21511.5350008,21511.640423,21513.1395735,NaN,NaN,NaN,NaN,NaN,NaN,2.07953330000237,299.437119066393,0.433001000001241,62.3488799112239,0.0416973999999755,6.0041112727252,0.104072500002076,14.985655471169,1.49915049999981,215.866370962358
90,90,126_m_m_f_a.jpg,21514.7456535,2,right,NaN,0.415386599997873,NaN,NaN,21513.3350218,21513.9748176,21514.2249311,21514.3302669,21515.8294833,NaN,NaN,NaN,NaN,NaN,NaN,2.49446149999858,359.183652014977,0.639650599998276,92.1048645253026,0.249989500000083,35.996603505598,0.104033899999195,14.9800973617323,1.49921639999957,215.875860065549
91,91,089_y_m_f_a.jpg,21516.9410168,2,right,NaN,0.429537899999559,NaN,NaN,21516.0263473,21516.3644448,21516.4060583,21516.5114789,21518.0110336,NaN,NaN,NaN,NaN,NaN,NaN,1.98468629999843,285.779866050422,0.33794879999914,48.6620796423754,0.0414650999991864,5.97066182375734,0.104007199999614,14.9762527630653,1.49955469999986,215.924572715386
92,92,104_m_m_h_a.jpg,21519.2867929,1,left,NaN,0.755462199998874,NaN,NaN,21518.208066,21518.3355564,21518.4260724,21518.5313307,21520.0311021,NaN,NaN,NaN,NaN,NaN,NaN,1.82303610000235,262.503455817763,0.127338599999348,18.3357984840681,0.0903968999991775,13.0164721614488,0.103838999999425,14.9520332309791,1.49977140000192,215.955775882134
93,93,132_y_f_f_a.jpg,21521.7911939,2,right,NaN,0.505862099998922,NaN,NaN,21520.2329115,21520.9786298,21521.1800918,21521.2853318,21522.7849221,NaN,NaN,NaN,NaN,NaN,NaN,2.55201060000036,367.470288593183,0.745569099999557,107.356330080666,0.201326599999447,28.9895127407664,0.103875699998753,14.9573177542269,1.49959029999809,215.929698846767
94,94,089_y_m_h_a.jpg,21523.803637,2,right,NaN,0.442977000002429,NaN,NaN,21522.9803652,21523.2135782,21523.2552609,21523.36066,21524.8601255,NaN,NaN,NaN,NaN,NaN,NaN,1.87976029999845,270.671313013489,0.233079899997392,33.5617485747512,0.041552300001058,5.98321796668758,0.103998799997498,14.9750432260822,1.49946550000095,215.911728587959
95,95,069_y_f_f_a.jpg,21526.3334286,2,right,NaN,0.478050999998231,NaN,NaN,21525.0675008,21525.5000442,21525.7499792,21525.8553776,21527.354839,NaN,NaN,NaN,NaN,NaN,NaN,2.28733819999979,329.359458171537,0.432394399998884,62.2615340836138,0.249794000003021,35.9684529797575,0.104073699996661,14.9858282613434,1.49946139999884,215.911138218561
96,96,109_y_m_h_a.jpg,21529.2946565,1,left,NaN,1.03303009999945,NaN,NaN,21527.6256365,21528.0588064,21528.1560404,21528.2616264,21529.7608071,NaN,NaN,NaN,NaN,NaN,NaN,2.13517059999867,307.448470855521,0.433019000000058,62.3514717753643,0.0971070999985386,13.9826903778946,0.104045299998688,14.9817388757229,1.49918070000058,215.870719534811
97,97,090_y_f_f_a.jpg,21531.0120814,2,right,NaN,0.679335100001481,NaN,NaN,21529.9608387,21530.1926821,21530.2275908,21530.3327463,21531.8322933,NaN,NaN,NaN,NaN,NaN,NaN,1.87145460000102,269.475354824669,0.231672099998832,33.3590359873692,0.0347830999999132,5.00850419474428,0.103783099999418,14.9439840523688,1.49954700000308,215.923463973894
98,98,123_y_m_f_a.jpg,21532.9391309,2,right,NaN,0.422040399997059,NaN,NaN,21532.0332741,21532.1617044,21532.4116302,21532.5170905,21534.0164386,NaN,NaN,NaN,NaN,NaN,NaN,1.98316450000129,285.560738322611,0.128280300003098,18.4713961857964,0.249792799997522,35.9682801880116,0.104008199999953,14.9763967555757,1.49934809999831,215.894823872575
99,99,041_y_m_h_a.jpg,21535.3105285,1,left,NaN,0.456811399999424,NaN,NaN,21534.2179093,21534.6510966,21534.7483348,21534.8537171,21536.3530105,NaN,NaN,NaN,NaN,NaN,NaN,2.13510119999773,307.438477778544,0.43305209999744,62.3562379254697,0.0971157000021776,13.9839287135893,0.103951200002484,14.968189185623,1.49929340000017,215.886947485186
100,100,013_y_m_h_a.jpg,21538.0308368,1,left,NaN,0.797571700000844,NaN,NaN,21536.6671428,21537.1005251,21537.1281255,21537.2332651,21538.7330968,NaN,NaN,NaN,NaN,NaN,NaN,2.06595399999787,297.481802230505,0.433235199998308,62.382602945333,0.0274607999999716,3.95414819240478,0.1037576000017,14.9403122449238,1.49983169999905,215.964458627161
101,101,050_m_f_f_a.jpg,21539.8019222,2,right,NaN,0.637527700000646,NaN,NaN,21538.938368,21538.9617024,21539.0590968,21539.1643945,21540.6638826,NaN,NaN,NaN,NaN,NaN,NaN,1.7255146000025,248.461094963547,0.0231877000005625,3.33885400437508,0.0972385999994003,14.001625386733,0.103941699999268,14.9668212567737,1.49948810000205,215.914982817752
102,102,062_y_m_f_a.jpg,21542.5362189,2,right,NaN,0.540377600002103,NaN,NaN,21540.8923159,21541.6406662,21541.8906318,21541.9958413,21543.4953212,NaN,NaN,NaN,NaN,NaN,NaN,2.6030052999995,374.813140980004,0.74821829999928,107.737794910177,0.249841299999389,35.9752638226732,0.103767199998401,14.9416945720812,1.49947990000146,215.913802079481
103,103,106_y_f_f_a.jpg,21544.6215692,2,right,NaN,0.714093200000207,NaN,NaN,21543.7017288,21543.7259647,21543.8020973,21543.907476,21545.4068555,NaN,NaN,NaN,NaN,NaN,NaN,1.70512670000244,245.525391053528,0.0240991000027861,3.47008873429388,0.07598340000186,10.9410368150394,0.10394720000113,14.9676132155812,1.49937950000094,215.89934523625
104,104,007_m_m_f_a.jpg,21547.1554322,1,left,NaN,0.679151800002728,NaN,NaN,21545.7185376,21546.3638404,21546.3776598,21546.4762804,21547.975596,NaN,NaN,NaN,NaN,NaN,NaN,2.25705839999864,324.999395229413,0.645148199997493,92.8964774826632,0.0136793999990914,1.96973048052661,0.0972766999984742,14.0071114993906,1.49931560000186,215.89014411808
105,105,122_m_f_h_a.jpg,21549.1026152,1,left,NaN,0.540615400001116,NaN,NaN,21548.1832761,21548.2066133,21548.4565997,21548.5619998,21550.0617005,NaN,NaN,NaN,NaN,NaN,NaN,1.87842439999804,270.478953483837,0.0231868000009854,3.33872441122044,0.249841299999389,35.9752638226732,0.104023899999447,14.9786574371517,1.49970069999836,215.945595614578
106,106,117_m_f_h_a.jpg,21551.9538533,1,left,NaN,0.630747999999585,NaN,NaN,21550.2709526,21551.0167546,21551.2181401,21551.3231053,21552.8225846,NaN,NaN,NaN,NaN,NaN,NaN,2.55163199999879,367.415773046955,0.745665900001768,107.370268551277,0.201248400000622,28.9782525304302,0.103710699997464,14.9335589978599,1.49947929999689,215.913715683346
107,107,069_y_f_h_a.jpg,21554.160027,1,left,NaN,0.345808699999907,NaN,NaN,21553.0271494,21553.4588771,21553.7087502,21553.8142183,21555.3135936,NaN,NaN,NaN,NaN,NaN,NaN,2.2864441999991,329.230728910671,0.43159359999845,62.1462249202174,0.24974949999887,35.9620453146139,0.104094999998779,14.9888953010827,1.49937529999806,215.898740467497
108,108,114_y_m_f_a.jpg,21557.0146837,2,right,NaN,0.498775399999431,NaN,NaN,21555.5122311,21556.257785,21556.4105291,21556.5159083,21558.0152278,NaN,NaN,NaN,NaN,NaN,NaN,2.50299669999731,360.412656473945,0.745423799999116,107.335407975917,0.152620599998045,21.9762159007248,0.103969599997072,14.970838646139,1.49931949999882,215.890705688243
109,109,101_y_f_h_a.jpg,21559.050006,2,right,NaN,0.485156599999755,NaN,NaN,21558.2835874,21558.4111799,21558.4599034,21558.5648494,21560.0648744,NaN,NaN,NaN,NaN,NaN,NaN,1.78128699999797,256.491900134133,0.127445699999953,18.3512200768039,0.0485661000020627,6.99315229474394,0.103730500002712,14.9364100493573,1.50002499999755,215.992292369793
110,110,041_y_m_f_a.jpg,21561.4545906,2,right,NaN,0.554477899997437,NaN,NaN,21560.2643313,21560.6974834,21560.7947494,21560.9001127,21562.3994807,NaN,NaN,NaN,NaN,NaN,NaN,2.13514940000096,307.445418215662,0.433000299999549,62.348779116257,0.0971368999998958,13.9869813534489,0.103982000000542,14.9726241531638,1.49936800000069,215.897689322904
111,111,048_y_f_f_a.jpg,21564.1829977,2,right,NaN,0.630292200003169,NaN,NaN,21562.6030669,21563.3498946,21563.4471411,21563.5527055,21565.0521524,NaN,NaN,NaN,NaN,NaN,NaN,2.44908550000036,352.649850072875,0.746679500000027,107.516219310212,0.0971134999999776,13.9836119298567,0.104126099999121,14.993373466691,1.4994469000012,215.909050328207
112,112,052_m_f_h_a.jpg,21566.0256004,1,left,NaN,0.491855000000214,NaN,NaN,21565.2518809,21565.2755301,21565.42841,21565.5337454,21567.0337632,NaN,NaN,NaN,NaN,NaN,NaN,1.7818823000016,256.577618847108,0.023502300002292,3.38415403307674,0.152742499998567,21.993768581882,0.103946700000961,14.9675412193259,1.50001780000093,215.991255624556
113,113,105_y_m_f_a.jpg,21569.0836599,2,right,NaN,1.11430549999932,NaN,NaN,21567.2470422,21567.7858725,21567.8622326,21567.9693544,21569.4665354,NaN,NaN,NaN,NaN,NaN,NaN,2.2194931999984,319.59028960691,0.53868539999894,77.5666368307862,0.0762209999993502,10.9752494235793,0.105858200000512,15.2427828098118,1.49718099999882,215.582777808885
114,114,014_m_m_h_a.jpg,21571.3386964,1,left,NaN,0.790084199998091,NaN,NaN,21569.6678128,21570.4154182,21570.443162,21570.5486122,21572.0478364,NaN,NaN,NaN,NaN,NaN,NaN,2.38002360000246,342.705457082101,0.747469900001306,107.630030952128,0.0276231000025291,3.97751816930788,0.104045299998688,14.9817388757229,1.49922420000075,215.876983206921
115,115,013_y_m_h_a.jpg,21573.6340847,1,left,NaN,0.602737900000648,NaN,NaN,21572.3604531,21572.8978974,21572.9256701,21573.0313468,21574.5303809,NaN,NaN,NaN,NaN,NaN,NaN,2.16992780000146,312.453245645921,0.537268300002324,77.3625851137903,0.0276468000010937,3.98093079044361,0.104189099998621,15.0024449917065,1.49903410000115,215.849610240008
116,116,063_y_f_h_a.jpg,21576.0975092,1,left,NaN,0.686014800001431,NaN,NaN,21574.7642698,21575.1046937,21575.3059198,21575.4114944,21576.9109308,NaN,NaN,NaN,NaN,NaN,NaN,2.14666099999886,309.103001837532,0.340277299997979,48.9973660892901,0.201079700000264,28.9539610020888,0.104161600000225,14.9984851992405,1.49943640000129,215.907538407371
117,117,072_y_m_f_a.jpg,21578.4872716,2,right,NaN,0.498831799999607,NaN,NaN,21577.114975,21577.8620536,21577.8830377,21577.9884398,21579.4876934,NaN,NaN,NaN,NaN,NaN,NaN,2.37271839999812,341.653563350224,0.746914499999548,107.550057538644,0.0208542000000307,3.00284759490817,0.104081800000131,14.9869946007829,1.49925359999907,215.881216585052
118,118,073_m_f_h_a.jpg,21580.4847276,2,right,NaN,0.547233799999958,NaN,NaN,21579.6904806,21579.8180612,21579.8319017,21579.9374938,21581.4369494,NaN,NaN,NaN,NaN,NaN,NaN,1.7464688,251.478341804262,0.127428499999951,18.3487434064623,0.0136979000017163,1.97239434144613,0.104131100000814,14.9940934292433,1.49945559999833,215.91030306221
119,119,048_y_f_f_a.jpg,21582.7567906,2,right,NaN,0.477668800001993,NaN,NaN,21581.6422159,21582.0764866,21582.1736205,21582.2791218,21583.7786131,NaN,NaN,NaN,NaN,NaN,NaN,2.13639719999992,307.625092009229,0.434127700002136,62.5111162179567,0.0970006000025023,13.9673551812937,0.104118100000051,14.9922215271312,1.49949130000095,215.915443593471
120,120,104_m_m_f_a.jpg,21585.1502106,2,right,NaN,0.950092099999893,NaN,NaN,21583.975752,21583.9975622,21584.0948964,21584.2001185,21585.6994923,21585.7040148,NaN,NaN,NaN,NaN,NaN,1.72374029999992,248.205609138371,0.0216606000030879,3.11896311646789,0.0971907000021019,13.9947281482063,0.103842199998326,14.9524940066982,1.49937379999756,215.898524478731
121,121,125_y_f_f_a.jpg,21631.7049488,2,right,NaN,0.720677200002683,NaN,21619.7523474,21629.9700905,21630.7192093,21630.8719451,21630.9842716,21632.4835165,NaN,NaN,NaN,NaN,NaN,NaN,2.51342600000135,361.914397055394,0.748970000000554,107.846034043825,0.152579899997363,21.9703554074353,0.110959300000104,15.9773027561602,1.49924490000194,215.879963851049
122,122,032_m_m_f_a.jpg,21633.7082704,2,right,NaN,0.831917899999098,NaN,NaN,21632.6870446,21632.7243098,21632.7641506,21632.8763525,21634.3759484,NaN,NaN,NaN,NaN,NaN,NaN,1.68890380000084,243.189415746293,0.0371793000012985,5.35353893168303,0.0397195000005013,5.71930858279315,0.110846100000344,15.9610028095297,1.49959590000071,215.930505204931
123,123,025_y_m_f_a.jpg,21635.6632749,2,right,NaN,0.596060899999429,NaN,NaN,21634.5731527,21634.9133419,21634.9550832,21635.067214,21636.566914,NaN,NaN,NaN,NaN,NaN,NaN,1.99376130000019,287.086597640655,0.340044700002181,48.9638734433024,0.04160100000081,5.99023039953694,0.11090520000289,15.969512764383,1.4997000000003,215.945494820135
124,124,114_y_m_h_a.jpg,21638.195952,1,left,NaN,0.415191199997935,NaN,NaN,21636.7627823,21637.5155888,21637.6683306,21637.7807608,21639.2799644,NaN,NaN,NaN,NaN,NaN,NaN,2.51718210000035,362.455247140664,0.752658199999132,108.377107040883,0.152606600000581,21.9742000066262,0.111085399999865,15.9954602055469,1.49920360000033,215.874016962148
125,125,013_y_m_f_a.jpg,21641.0340395,1,left,NaN,0.957067799998185,NaN,NaN,21639.5976931,21639.9368644,21639.964734,21640.0769717,21641.5766934,NaN,NaN,NaN,NaN,NaN,NaN,1.97900029999801,284.961124913102,0.339022600001044,48.8166987480293,0.0277387999994971,3.99417809669065,0.110885999998573,15.9667481084966,1.49972169999819,215.94861945625
126,126,061_m_f_h_a.jpg,21643.0703049,1,left,NaN,0.560656099998596,NaN,NaN,21641.7738935,21642.209852,21642.4105695,21642.5096488,21644.0082419,NaN,NaN,NaN,NaN,NaN,NaN,2.23434839999754,321.729326423918,0.435811899998953,62.7536283215031,0.200593699999445,28.8839806655818,0.0975575000011304,14.0475445830201,1.49859309999738,215.786109563852
127,127,043_m_f_f_a.jpg,21645.8453054,2,right,NaN,0.706867899996723,NaN,NaN,21644.2110889,21644.9565945,21645.0329806,21645.1384375,21646.637683,NaN,NaN,NaN,NaN,NaN,NaN,2.42659410000124,349.411258019792,0.745359299999109,107.326120462136,0.0762327000011283,10.9769341356373,0.103896500000701,14.9603127977109,1.49924549999923,215.880050246136
128,128,057_y_m_f_a.jpg,21647.7757074,2,right,NaN,0.477947600000334,NaN,NaN,21646.8634286,21646.9910828,21647.1924071,21647.2977598,21648.7971869,NaN,NaN,NaN,NaN,NaN,NaN,1.93375829999786,278.44661796059,0.127511399998184,18.3606803812832,0.201190100000531,28.9698577698996,0.103937200001383,14.9661732910005,1.49942709999959,215.906199277234
129,129,090_y_f_h_a.jpg,21650.440081,1,left,NaN,0.547346499999549,NaN,NaN,21649.0070462,21649.7526214,21649.7873238,21649.8927345,21651.392287,NaN,NaN,NaN,NaN,NaN,NaN,2.38524079999843,343.456694552732,0.745419300001231,107.334760010143,0.0345534000007319,4.97542912640835,0.104005299999699,14.9759791774002,1.49955249999766,215.924255931653
130,130,008_y_m_h_a.jpg,21653.2027694,2,right,NaN,0.73435740000059,NaN,NaN,21651.7063993,21652.3507873,21652.363053,21652.468412,21653.9677453,NaN,NaN,NaN,NaN,NaN,NaN,2.26134599999932,325.616777308321,0.644260999997641,92.7687273706592,0.0121417999980622,1.74832767125967,0.103971299999102,14.9710834336163,1.49933330000204,215.892692784677
131,131,134_y_f_h_a.jpg,21655.1777649,1,left,NaN,0.498480800000834,NaN,NaN,21654.203185,21654.3307367,21654.5741957,21654.6792841,21656.17855,NaN,NaN,NaN,NaN,NaN,NaN,1.97536500000206,284.437669117647,0.127401600002486,18.3448700096074,0.243302799997764,35.0337691115763,0.103689200001099,14.9304631604567,1.49926590000177,215.882987692721
132,132,108_m_m_f_a.jpg,21657.6780507,2,right,NaN,0.408346200001688,NaN,NaN,21656.376801,21657.0183051,21657.1708923,21657.2697045,21658.7689225,NaN,NaN,NaN,NaN,NaN,NaN,2.39212150000094,344.447463484352,0.641354500003217,92.3502132815144,0.152441300000646,21.9503980527156,0.0973699999995006,14.0205459962156,1.49921800000084,215.87609045367
133,133,016_y_m_f_a.jpg,21660.2201959,2,right,NaN,0.457058400003007,NaN,NaN,21659.0926564,21659.6298486,21659.6578338,21659.7631375,21661.2628512,NaN,NaN,NaN,NaN,NaN,NaN,2.1701948000009,312.491691633116,0.537044100001367,77.3303020037381,0.0278614999988349,4.01184597164659,0.10398669999995,14.9733009176487,1.49971370000276,215.947467517214
134,134,026_m_m_h_a.jpg,21662.8362561,2,right,NaN,0.464131599997927,NaN,NaN,21661.5906658,21662.2321089,21662.2668773,21662.3721245,21663.8719759,NaN,NaN,NaN,NaN,NaN,NaN,2.28131010000288,328.491457213573,0.641290700001264,92.3410265621763,0.034631200000149,4.98663173984512,0.103896100001293,14.9602552008115,1.4998513999999,215.967295278779
135,135,109_y_m_f_a.jpg,21664.9790969,2,right,NaN,0.651596399999107,NaN,NaN,21664.0973336,21664.124995,21664.221857,21664.3275005,21665.8269302,NaN,NaN,NaN,NaN,NaN,NaN,1.72959660000197,249.048872192154,0.0275034000005689,3.96028227135945,0.0966892000033113,13.922515928835,0.104163600000902,14.9987731842614,1.4994297000012,215.906573657866
136,136,016_y_m_h_a.jpg,21667.5221612,2,right,NaN,0.580199399999401,NaN,NaN,21666.1489439,21666.8002961,21666.83475,21666.9419618,21668.4391904,NaN,NaN,NaN,NaN,NaN,NaN,2.29024650000065,329.778231448038,0.651208499999484,93.7691149986252,0.0343236000007892,4.94233965871662,0.10587349999696,15.2449858939645,1.49722860000111,215.589631850392
137,137,070_m_m_h_a.jpg,21669.2687437,2,right,NaN,0.484646400000202,NaN,NaN,21668.6476817,21668.6718707,21668.6790163,21668.7840973,21670.2837081,NaN,NaN,NaN,NaN,NaN,NaN,1.63602639999954,235.575468751506,0.0239677999998094,3.45118252364328,0.00698199999897042,1.00535536748119,0.103751200000261,14.9393906929617,1.49961080000139,215.932650692708
138,138,123_y_m_h_a.jpg,21671.845288,1,left,NaN,0.470957100002124,NaN,NaN,21670.479698,21671.0189485,21671.2689514,21671.3743309,21672.8739756,NaN,NaN,NaN,NaN,NaN,NaN,2.39427760000035,344.757925630951,0.539103400002205,77.6268256802493,0.24986159999753,35.9781868693782,0.103965299997071,14.9702194785536,1.49964470000123,215.937532037136
139,139,043_m_f_h_a.jpg,21673.9904516,1,left,NaN,0.602673199999117,NaN,NaN,21673.0773274,21673.2058929,21673.282362,21673.3877784,21674.8870519,NaN,NaN,NaN,NaN,NaN,NaN,1.80972450000263,260.58668576456,0.128435700000409,18.4937726139583,0.0763463000002957,10.9932916791672,0.104023399999278,14.9785854408964,1.49927350000144,215.884082035381
140,140,048_y_f_h_a.jpg,21676.3486472,1,left,NaN,0.623138599999947,NaN,NaN,21675.0892607,21675.5224845,21675.6197275,21675.7255086,21677.2244782,NaN,NaN,NaN,NaN,NaN,NaN,2.13521750000291,307.455224102585,0.433081300001504,62.3604425059368,0.0971199999985402,13.9845478806508,0.104171199996927,14.999867526398,1.49896960000115,215.840322726227
141,141,113_m_f_f_a.jpg,21679.1366211,2,right,NaN,0.818114699999569,NaN,NaN,21677.4196475,21678.060371,21678.2130889,21678.3185064,21679.817943,NaN,NaN,NaN,NaN,NaN,NaN,2.39829549999922,345.336472942676,0.640581400002702,92.2388927092956,0.152575100000831,21.9696642441185,0.104031800001394,14.9797949778795,1.49943659999917,215.907567205559
142,142,032_m_m_f_a.jpg,21681.3878962,1,left,NaN,0.991891500001657,NaN,NaN,21680.0183309,21680.2490965,21680.2908066,21680.3960047,21681.8958096,NaN,NaN,NaN,NaN,NaN,NaN,1.87747870000021,270.342779813115,0.230617700002767,33.2072103363133,0.0415763000019069,5.98667378589076,0.103790299999673,14.9450207981297,1.49980489999871,215.960599629138
143,143,087_m_m_h_a.jpg,21683.1554249,1,left,NaN,0.574938599998859,NaN,NaN,21682.0972731,21682.4336619,21682.4752512,21682.5804863,21684.0797997,NaN,NaN,NaN,NaN,NaN,NaN,1.98252660000071,285.468885531204,0.336251100001391,48.4176236404618,0.0414568000014697,5.96946668665396,0.103978399998596,14.9721057800214,1.49931339999966,215.889827334348
144,144,092_m_m_f_a.jpg,21685.5588898,2,right,NaN,0.588917799999763,NaN,NaN,21684.2784899,21684.8159381,21684.86454,21684.969972,21686.4691162,NaN,NaN,NaN,NaN,NaN,NaN,2.1906263000019,315.4336736146,0.537315599998692,77.369395956706,0.0484778999998525,6.98045215930324,0.104050699999789,14.9825164351746,1.49914420000277,215.865463810275
145,145,020_y_f_h_a.jpg,21687.9763593,2,right,NaN,1.15130579999823,NaN,NaN,21686.6663476,21686.6917117,21686.7195429,21686.8250535,21688.3242728,NaN,NaN,NaN,NaN,NaN,NaN,1.65792520000105,238.728730872125,0.0252068000008876,3.62958918385194,0.0276937999988149,3.98769843581566,0.104097500003263,14.9892552828827,1.49921929999982,215.876277643724
146,146,070_m_m_f_a.jpg,21689.6890836,2,right,NaN,0.707037099997251,NaN,NaN,21688.5225947,21688.8627732,21688.8768431,21688.9820465,21690.4819803,NaN,NaN,NaN,NaN,NaN,NaN,1.95938559999922,282.136755974658,0.340007399998285,48.9585025239198,0.0139435000019148,2.00775889006964,0.103904999999941,14.9615367335259,1.49993379999796,215.979160257345
147,147,032_m_m_h_a.jpg,21692.1035967,1,left,NaN,0.934087999998155,NaN,NaN,21690.6871495,21691.0278713,21691.0693193,21691.1695087,21692.6669273,NaN,NaN,NaN,NaN,NaN,NaN,1.97977779999928,285.073079052262,0.340592099997593,49.0426949161795,0.0413239000008616,5.95033008840571,0.098593399998208,14.1967063736802,1.49741859999995,215.616990417948
148,148,056_m_m_f_a.jpg,21694.0757212,2,right,NaN,0.519587200000387,NaN,NaN,21692.8648509,21693.2981047,21693.4507739,21693.556134,21695.0555127,NaN,NaN,NaN,NaN,NaN,NaN,2.19066179999936,315.438785346626,0.433124399998633,62.3666485806228,0.152507800001331,21.9599735515176,0.103942000001553,14.9668644548411,1.49937870000213,215.899230042452
149,149,077_m_m_h_a.jpg,21696.4801277,2,right,NaN,0.554659500001435,NaN,NaN,21695.2550436,21695.7921754,21695.820048,21695.9254682,21697.424699,NaN,NaN,NaN,NaN,NaN,NaN,2.16965540000092,312.414022099275,0.536979300002713,77.3209712924133,0.0277480999975523,3.99551722630448,0.104012599997077,14.9770303219931,1.49923080000008,215.87793355707
150,150,051_m_m_f_a.jpg,21698.7065766,2,right,NaN,0.859851700002764,NaN,NaN,21697.6276428,21697.6510879,21697.7424595,21697.8467249,21699.3464427,NaN,NaN,NaN,NaN,NaN,NaN,1.71879990000161,247.494228780804,0.0232792000024347,3.35202931489073,0.0912205999993603,13.1350787521821,0.102890799997112,14.8154995784567,1.49971780000124,215.948057886088
151,151,037_y_m_h_a.jpg,21700.5400584,1,left,NaN,0.794306000003417,NaN,NaN,21699.5440021,21699.5681741,21699.6379292,21699.7457524,21701.2424251,NaN,NaN,NaN,NaN,NaN,NaN,1.69842300000164,244.560108787877,0.0240372000007483,3.46117560062085,0.0696222000005946,10.0250719674547,0.106437600003119,15.3262120424995,1.49667270000282,215.509586441176
152,152,037_y_m_f_a.jpg,21702.8764688,1,left,NaN,0.616895300001488,NaN,NaN,21701.4364855,21702.0782437,21702.1544994,21702.2595735,21703.7589936,NaN,NaN,NaN,NaN,NaN,NaN,2.32250810000187,334.42365865078,0.641623499999696,92.3889472532062,0.0761256999976467,10.9615269417335,0.103791100002127,14.9451359924524,1.49942010000086,215.905191330184
153,153,116_m_m_h_a.jpg,21705.1755188,1,left,NaN,0.373516600000585,NaN,NaN,21703.9569249,21704.4950821,21704.6966112,21704.8020022,21706.301362,NaN,NaN,NaN,NaN,NaN,NaN,2.34443709999687,337.581269342805,0.538006799997675,77.4689235460905,0.201399700003094,29.0000385902421,0.104071199999453,14.9854682805912,1.49935980000009,215.896508584633
154,154,051_m_m_h_a.jpg,21707.7649457,1,left,NaN,0.415493299999071,NaN,NaN,21706.5054618,21707.1469482,21707.2441302,21707.3494524,21708.8491809,NaN,NaN,NaN,NaN,NaN,NaN,2.34371910000118,337.477882755921,0.64133270000093,92.34707424552,0.097054300000309,13.9750875761715,0.104048099998181,14.9821420545426,1.49972849999904,215.949598605112
155,155,094_m_m_f_a.jpg,21710.0013942,2,right,NaN,0.436335500002315,NaN,NaN,21709.0542688,21709.3900529,21709.459723,21709.5650587,21711.0647697,NaN,NaN,NaN,NaN,NaN,NaN,2.0105008999999,289.496973852582,0.335631699999794,48.3284347094513,0.069531500001176,10.0120118512617,0.103996500001813,14.9747120440416,1.49971100000039,215.947078737226
156,156,111_m_f_f_a.jpg,21712.2306692,2,right,NaN,0.526615499999025,NaN,NaN,21711.2763512,21711.5082697,21711.598768,21711.7040537,21713.2035332,NaN,NaN,NaN,NaN,NaN,NaN,1.92718200000309,277.499680335427,0.231752400002733,33.3705985826059,0.0903679000002739,13.0122963802172,0.103896299999178,14.9602839989993,1.49947950000205,215.913744482581
157,157,045_m_m_f_a.jpg,21714.1763131,2,right,NaN,0.574763600001461,NaN,NaN,21713.3958564,21713.41934,21713.4957734,21713.6015495,21715.1005751,NaN,NaN,NaN,NaN,NaN,NaN,1.70471870000256,245.46664212917,0.0232782000020961,3.35188532238028,0.0762915000013891,10.9854008924231,0.104345499999908,15.0249654129027,1.49902560000191,215.848386304193
158,158,062_y_m_f_a.jpg,21717.0627783,2,right,NaN,0.846025600003486,NaN,NaN,21715.324104,21715.8615858,21716.1112846,21716.2167527,21717.7161259,NaN,NaN,NaN,NaN,NaN,NaN,2.39202189999924,344.433121834921,0.537350200000219,77.3743780961009,0.249555899998086,35.9341683739147,0.104056000000128,14.9832795952704,1.49937320000026,215.898438083644
159,159,064_m_f_h_a.jpg,21718.8741624,1,left,NaN,0.477713100000983,NaN,NaN,21717.9134612,21718.0413014,21718.2910558,21718.3964493,21719.8960372,NaN,NaN,NaN,NaN,NaN,NaN,1.98257599999852,285.475998758497,0.127646499997354,18.3801337627402,0.249604799999361,35.9412096054757,0.10397759999978,14.9719905862226,1.49958790000164,215.929353265371
160,160,117_m_f_f_a.jpg,21721.4026632,2,right,NaN,0.658481399997981,NaN,NaN,21720.1005353,21720.4373583,21720.6385584,21720.7441818,21722.2436016,21722.2481068,NaN,NaN,NaN,NaN,NaN,2.14306629999919,308.585392135486,0.336691600001359,48.4810523198385,0.201060199997301,28.9511531486588,0.104262999997445,15.0130860344572,1.49941979999858,215.905148132117
161,161,105_y_m_h_a.jpg,21785.9159583,1,left,NaN,0.609525299998495,NaN,21774.5296441,21784.7656022,21785.1109034,21785.1941232,21785.306433,21786.8058519,NaN,NaN,NaN,NaN,NaN,NaN,2.04024969999955,293.816368810505,0.345148500000505,49.7048370944808,0.0830610999983037,11.961629398065,0.110852199999499,15.9638258388254,1.499418899999,215.931322780562
162,162,034_y_f_f_a.jpg,21787.7223263,2,right,NaN,0.38730040000155,NaN,NaN,21787.1305807,21787.1691053,21787.2227993,21787.3350259,21788.8338098,NaN,NaN,NaN,NaN,NaN,NaN,1.70322909999959,245.282030633002,0.0384477000006882,5.53685345637857,0.0535655000021507,7.71396790508263,0.110932599996886,15.975404242824,1.49878389999867,215.839876427554
163,163,043_m_f_f_a.jpg,21790.086875,2,right,NaN,0.533432600001106,NaN,NaN,21789.0355895,21789.3714524,21789.447814,21789.5534424,21791.0529671,NaN,NaN,NaN,NaN,NaN,NaN,2.01737760000105,290.52255758307,0.335721899999044,48.3473123843146,0.076215900000534,10.9758521144674,0.104204400002345,15.006476130237,1.49952470000062,215.946559039289
164,164,031_y_m_f_a.jpg,21791.8235401,2,right,NaN,0.366682999996556,NaN,NaN,21791.278686,21791.3026438,21791.3512893,21791.4568571,21792.9559761,NaN,NaN,NaN,NaN,NaN,NaN,1.67729009999675,241.546555121642,0.0238198999977612,3.43030390974845,0.0484846999970614,6.98228187265824,0.104213200000231,15.0077434179736,1.49911899999643,215.888134179793
165,165,011_m_f_h_a.jpg,21793.7399789,2,right,NaN,0.41527490000226,NaN,NaN,21793.1748702,21793.1982377,21793.2192518,21793.324704,21794.8241352,NaN,NaN,NaN,NaN,NaN,NaN,1.64926500000001,237.510660340432,0.0232098999986192,3.34245780702761,0.0208851000024879,3.00766334874433,0.103964899997663,14.971985733446,1.49943120000171,215.933094104009
166,166,093_m_f_f_a.jpg,21795.7481253,1,left,NaN,0.44960379999975,NaN,NaN,21795.02338,21795.1511274,21795.1926377,21795.2985215,21796.798067,NaN,NaN,NaN,NaN,NaN,NaN,1.77468700000099,255.572683145409,0.127601899999718,18.3759502139598,0.0413636000012048,5.95677222904964,0.104019999998854,14.9799206848744,1.49954549999893,215.949554447142
167,167,028_y_f_f_a.jpg,21798.1762946,2,right,NaN,0.380023200003052,NaN,NaN,21796.999486,21797.649222,21797.6908653,21797.7962714,21799.2950774,NaN,NaN,NaN,NaN,NaN,NaN,2.29559139999765,330.588128217875,0.649592099998699,93.5477613498241,0.0414987000003748,5.97622798056008,0.10388050000256,14.9598312897577,1.4988059999996,215.843059048791
168,168,098_y_f_h_a.jpg,21800.341698,2,right,NaN,0.67938580000191,NaN,NaN,21799.4915438,21799.5154135,21799.5569379,21799.6623122,21801.16181,NaN,NaN,NaN,NaN,NaN,NaN,1.67026620000252,240.53504325072,0.0237029000018083,3.4134547397857,0.0413540999979887,5.95540413354219,0.103992299998936,14.975931607757,1.49949780000316,215.942685170528
169,169,105_y_m_f_a.jpg,21802.5966822,1,left,NaN,0.707093700002588,NaN,NaN,21801.3720486,21801.7078829,21801.7842555,21801.8895885,21803.389097,NaN,NaN,NaN,NaN,NaN,NaN,2.01704840000093,290.475149489517,0.335685500002,48.3420704205707,0.0762271000021428,10.9774650267513,0.103941500001383,14.9686158998726,1.49950850000096,215.944226077262
170,170,032_m_m_h_a.jpg,21804.3133938,1,left,NaN,0.554153099998075,NaN,NaN,21803.5940998,21803.6188865,21803.6604505,21803.7592407,21805.2585034,NaN,NaN,NaN,NaN,NaN,NaN,1.66440359999979,239.69077019699,0.0246497000007366,3.54980341204625,0.0414114999985031,5.96367030788393,0.0974943000001076,14.0401545976259,1.49926269999924,215.908828417868
171,171,038_m_m_h_a.jpg,21806.6151693,1,left,NaN,0.762507100000221,NaN,NaN,21805.467037,21805.6986267,21805.7473927,21805.8526622,21807.3522607,NaN,NaN,NaN,NaN,NaN,NaN,1.88522370000283,271.491073828099,0.231433800003288,33.3287826176362,0.0486005000020668,6.99895823191904,0.103812600002129,14.950053010379,1.49959850000232,215.957186977878
172,172,037_y_m_f_a.jpg,21808.6444643,1,left,NaN,0.790283999998792,NaN,NaN,21807.5448741,21807.672621,21807.7487999,21807.8541803,21809.3539209,NaN,NaN,NaN,NaN,NaN,NaN,1.80904680000094,260.520838103619,0.127606699999887,18.3766414620067,0.0760312999991584,10.9492678674085,0.103988200000458,14.9753411669571,1.49974060000022,215.977650799238
173,173,064_m_f_f_a.jpg,21810.9000575,2,right,NaN,0.450109299999895,NaN,NaN,21809.5645666,21810.101497,21810.3514461,21810.4499482,21811.9492882,NaN,NaN,NaN,NaN,NaN,NaN,2.3847216000031,343.42376873627,0.536786399999983,77.3026119670023,0.249723699998867,35.9627112012844,0.097282599999744,14.0096676795864,1.49934000000212,215.919960391644
174,174,061_m_f_f_a.jpg,21813.048834,2,right,NaN,0.470589200001996,NaN,NaN,21812.1496682,21812.2783224,21812.4731156,21812.5782448,21814.0774254,NaN,NaN,NaN,NaN,NaN,NaN,1.92775719999918,277.616323360905,0.128519900001265,18.5081513984633,0.194646199997806,28.0310001693083,0.103620599998976,14.9224030890296,1.49918059999982,215.897005196569
175,175,119_y_m_f_a.jpg,21815.2677804,2,right,NaN,0.450551900001301,NaN,NaN,21814.2789742,21814.510615,21814.7122677,21814.8172285,21816.3168649,NaN,NaN,NaN,NaN,NaN,NaN,2.0378907000013,293.476649209757,0.231481500002701,33.3356518947742,0.201508599999215,29.0192544255103,0.103670799999236,14.9296323913011,1.49963639999987,215.962644956702
176,176,026_m_m_h_a.jpg,21818.2168174,2,right,NaN,1.01265409999905,NaN,NaN,21816.6379708,21817.0709621,21817.0991264,21817.2041633,21818.7035556,NaN,NaN,NaN,NaN,NaN,NaN,2.0655848000024,297.464876680051,0.432841600002575,62.3335208346869,0.0280319000012241,4.03687404988746,0.103691199998138,14.9325701952382,1.49939230000018,215.927492114608
177,177,119_y_m_h_a.jpg,21820.0512177,1,left,NaN,0.408433599997807,NaN,NaN,21818.9029197,21819.3361649,21819.5372696,21819.6427841,21821.1425502,NaN,NaN,NaN,NaN,NaN,NaN,2.23963049999657,322.529198747776,0.433102399998461,62.3710786433105,0.20095560000118,28.9396168932146,0.104264699999476,15.015159933105,1.49976609999794,215.981323054029
178,178,014_m_m_f_a.jpg,21823.2644518,1,left,NaN,1.0338754000004,NaN,NaN,21821.3429571,21822.0978439,21822.1255721,21822.2305764,21823.7300385,NaN,NaN,NaN,NaN,NaN,NaN,2.38708140000017,343.763603544851,0.754746599999635,108.691061385288,0.0276016000025265,3.97490654506856,0.103592199997365,14.9183132046652,1.49946210000053,215.937544012983
179,179,094_m_m_f_a.jpg,21824.9873063,2,right,NaN,0.637539300001663,NaN,NaN,21823.93617,21824.1682687,21824.2443535,21824.349767,21825.8490438,NaN,NaN,NaN,NaN,NaN,NaN,1.91287379999994,275.472964857615,0.231964299997344,33.405179924254,0.0759591000023647,10.9388703455336,0.103998300000967,14.9767956680775,1.4992768000011,215.910858959202
180,180,084_m_f_f_a.jpg,21827.1436459,2,right,NaN,0.4155439999995,NaN,NaN,21826.0494182,21826.5878577,21826.6225991,21826.7281019,21828.2274865,NaN,NaN,NaN,NaN,NaN,NaN,2.17806829999972,313.66362603917,0.538282999998046,77.5181373397019,0.0345711999980267,4.97859867291939,0.10411600000225,14.9937456458111,1.49938459999976,215.926383237511
181,181,077_m_m_f_a.jpg,21829.5505196,1,left,NaN,0.65832539999974,NaN,NaN,21828.4239075,21828.7590483,21828.7868504,21828.8921942,21830.3918826,NaN,NaN,NaN,NaN,NaN,NaN,1.96797510000033,283.408103327605,0.334978899998532,48.2403129507764,0.0276578000011796,3.98299990713664,0.103981500000373,14.9743762999136,1.49968839999929,215.97013347686
182,182,054_y_f_h_a.jpg,21832.1521054,1,left,NaN,0.894038700000237,NaN,NaN,21830.6696496,21831.006668,21831.1593008,21831.2580667,21832.7572164,NaN,NaN,NaN,NaN,NaN,NaN,2.08756680000079,300.63050460232,0.336862699998164,48.5115989975075,0.152485999999044,21.959509570896,0.0973395999972126,14.0178762494877,1.499149700001,215.892555287595
183,183,063_y_f_f_a.jpg,21834.1629543,2,right,NaN,0.74140620000253,NaN,NaN,21832.9857195,21833.1147768,21833.3161189,21833.4215481,21834.9208843,NaN,NaN,NaN,NaN,NaN,NaN,1.93516480000108,278.68309187172,0.128915400000551,18.5651073552046,0.201210600000195,28.9763394442618,0.103934900002059,14.9676654339392,1.49933620000229,215.91941315365
184,184,035_m_f_h_a.jpg,21836.1385257,2,right,NaN,0.630986600001052,NaN,NaN,21835.1217792,21835.3534169,21835.4020489,21835.5075391,21837.006902,NaN,NaN,NaN,NaN,NaN,NaN,1.88512280000214,271.476543218529,0.231479699999909,33.3353926763637,0.0484913000000233,6.98323233911556,0.104145400000561,14.997979539705,1.49936290000187,215.923258220714
185,185,007_m_m_h_a.jpg,21838.968862,2,right,NaN,0.894449100000202,NaN,NaN,21837.3204301,21837.961865,21837.9757488,21838.0744129,21839.5737438,NaN,NaN,NaN,NaN,NaN,NaN,2.25331369999913,324.499716443949,0.641286499998387,92.3516718550506,0.0137480999983381,1.97986394486729,0.0973139999987325,14.0141895935872,1.49933089999831,215.918649900053
186,186,113_m_f_h_a.jpg,21840.6941569,1,left,NaN,0.540334000001167,NaN,NaN,21839.7679872,21839.8955178,21840.0483524,21840.1538229,21841.6534882,NaN,NaN,NaN,NaN,NaN,NaN,1.88550100000066,271.53100780208,0.127386799998931,18.3449736618435,0.152706699998816,21.9912925788923,0.104063899998437,14.986242724019,1.49966530000165,215.966806846093
187,187,093_m_f_h_a.jpg,21842.9419189,2,right,NaN,0.915066900000966,NaN,NaN,21841.8546586,21841.8798873,21841.9214607,21842.026852,21843.5261084,NaN,NaN,NaN,NaN,NaN,NaN,1.67144980000012,240.705493491893,0.0250925000000279,3.61357104200894,0.0414185999979964,5.96469277884406,0.103939299999183,14.9682990775455,1.4992564000022,215.907921155264
188,188,081_y_m_h_a.jpg,21844.4104843,2,right,NaN,0.519415699996898,NaN,NaN,21843.7274723,21843.7511027,21843.7855417,21843.8910686,21845.3907467,NaN,NaN,NaN,NaN,NaN,NaN,1.66327439999804,239.528154099473,0.0234318000002531,3.37441362729762,0.0342979000015475,4.93924073915204,0.104100000000471,14.9914414854803,1.49967809999725,215.968650173519
189,189,073_m_f_h_a.jpg,21846.8761128,2,right,NaN,0.928860899999563,NaN,NaN,21845.5951328,21845.829931,21845.8418748,21845.9472519,21847.446587,NaN,NaN,NaN,NaN,NaN,NaN,1.85145419999753,266.627927974872,0.234666000000288,33.7942517542759,0.0118084999994608,1.70054213998472,0.104057699998521,14.9853498620021,1.49933509999755,215.919254741963
190,190,034_y_f_h_a.jpg,21849.5846737,1,left,NaN,0.91518879999785,NaN,NaN,21847.7699194,21848.5154974,21848.5639945,21848.6694849,21850.1687775,NaN,NaN,NaN,NaN,NaN,NaN,2.3988580999976,345.459566166394,0.745443599997088,107.351336311542,0.0483666000000085,6.96527429153196,0.104085800001485,14.9893965435601,1.49929259999772,215.913134316788
191,191,085_y_f_h_a.jpg,21851.4431711,1,left,NaN,0.713787199998478,NaN,NaN,21850.3644139,21850.5962049,21850.6240781,21850.7293839,21852.2288019,NaN,NaN,NaN,NaN,NaN,NaN,1.86438800000178,268.490524573793,0.231640699999843,33.358578287105,0.0277220999996644,3.99225975021826,0.103973199999018,14.9731810166798,1.49941799999942,215.931193171619
192,192,022_y_f_h_a.jpg,21853.5018636,2,right,NaN,0.471246199998859,NaN,NaN,21852.5516226,21852.8906935,21852.9254224,21853.0306174,21854.5302314,NaN,NaN,NaN,NaN,NaN,NaN,1.97860880000007,284.939462514152,0.338939400000527,48.8106645745312,0.0346055999980308,4.98355261708038,0.103978399998596,14.9739298686432,1.49961400000029,215.959419132658
193,193,097_m_f_f_a.jpg,21855.4773858,2,right,NaN,0.574920099999872,NaN,NaN,21854.724876,21854.7483649,21854.7970631,21854.9024657,21856.401912,NaN,NaN,NaN,NaN,NaN,NaN,1.67703600000095,241.509962180062,0.0233418999996502,3.36146712779159,0.0485081000006176,6.98565170727948,0.10398940000232,14.9755139792308,1.49944630000027,215.935268654873
194,194,097_m_f_f_a.jpg,21857.4854397,2,right,NaN,0.602589300000545,NaN,NaN,21856.6002121,21856.7302052,21856.7774792,21856.8828504,21858.3823852,NaN,NaN,NaN,NaN,NaN,NaN,1.78217310000036,256.650756441225,0.129858200001763,18.7008799877754,0.0471031999986735,6.78333205144855,0.103910800000449,14.9641947925949,1.49953479999749,215.948013539885
195,195,010_y_f_h_a.jpg,21860.3019272,2,right,NaN,1.25575939999908,NaN,NaN,21858.6949837,21858.9270174,21858.9408581,21859.0461678,21860.5454915,NaN,NaN,NaN,NaN,NaN,NaN,1.85050780000165,266.491636907052,0.231891400002496,33.394681595656,0.013706199999433,1.97382992582959,0.103965400001471,14.9720577389966,1.4993237000017,215.917613028506
196,196,058_m_m_h_a.jpg,21861.6781967,1,left,NaN,0.491854599997168,NaN,NaN,21860.7489354,21860.8795504,21861.0808767,21861.1863421,21862.6865009,NaN,NaN,NaN,NaN,NaN,NaN,1.93756550000035,279.028816689809,0.130468800001836,18.7888124966331,0.201169899999513,28.9704782369738,0.10407419999683,14.9877260268357,1.50015879999773,216.03787578283
197,197,058_m_m_h_a.jpg,21864.3635166,1,left,NaN,0.519364299998415,NaN,NaN,21862.8923953,21863.537753,21863.738721,21863.8441523,21865.3436082,NaN,NaN,NaN,NaN,NaN,NaN,2.45121289999952,352.999181158799,0.645218899997417,92.9179767972474,0.200815000000148,28.9193690864103,0.103950099997746,14.9698543853889,1.49945590000061,215.936651150967
198,198,041_y_m_f_a.jpg,21866.4155725,2,right,NaN,0.540386499997112,NaN,NaN,21865.5469786,21865.672791,21865.7698435,21865.875186,21867.374698,NaN,NaN,NaN,NaN,NaN,NaN,1.82771940000021,263.209879316582,0.125668900000164,18.0975788750107,0.0969308999992791,13.9590193608795,0.104087700001401,14.9896701625568,1.4995119999985,215.944730111925
199,199,071_y_f_h_a.jpg,21868.717866,2,right,NaN,0.588962399997399,NaN,NaN,21867.5764673,21868.0095771,21868.0233557,21868.1289036,21869.6284183,NaN,NaN,NaN,NaN,NaN,NaN,2.05195099999764,295.501473077793,0.432953699997597,62.3496643554927,0.0136277999990853,1.96253954141393,0.104080900000554,14.9886908944031,1.49951469999723,215.945118938755
200,200,050_m_f_h_a.jpg,21871.892639,2,right,NaN,1.21396170000298,NaN,NaN,21869.8324885,21870.4762709,21870.5732986,21870.6786773,21872.1781168,21872.1826917,NaN,NaN,NaN,NaN,NaN,2.34562830000141,337.793942420736,0.643635399999766,92.689936955202,0.0968579000000318,13.9485066306475,0.104025000000547,14.9806407351415,1.49943950000306,215.934289387243
201,201,068_m_m_h_a.jpg,21916.0990463,1,left,NaN,0.484757199999876,NaN,21904.5903832,21914.8096423,21915.2522902,21915.5020423,21915.6142891,21917.1136252,NaN,NaN,NaN,NaN,NaN,NaN,2.30398290000085,331.796588172465,0.442502000001696,63.7247150836061,0.249613400003,35.9468268983652,0.110853600002883,15.9640274533194,1.49933609999789,215.919398752016
202,202,087_m_m_f_a.jpg,21918.7896568,1,left,NaN,0.678986800001439,NaN,NaN,21917.311559,21917.9569977,21917.9985405,21918.11067,21919.6109612,NaN,NaN,NaN,NaN,NaN,NaN,2.29940219999844,331.136921543758,0.64529439999751,92.928849552613,0.0414043000018864,5.96263343633759,0.110860099997808,15.9649635176187,1.50029120000181,216.056942708034
203,203,125_y_f_h_a.jpg,21920.78098,1,left,NaN,0.359821899997769,NaN,NaN,21919.8142365,21920.1560245,21920.3088297,21920.4211581,21921.920757,NaN,NaN,NaN,NaN,NaN,NaN,2.10652050000135,303.360027027781,0.341648300000088,49.2007732760995,0.152672799998982,21.986410639758,0.11094900000171,15.9777660075953,1.49959889999809,215.95724458127
204,204,066_y_m_f_a.jpg,21922.7395961,2,right,NaN,0.366880699999456,NaN,NaN,21922.1235488,21922.2535593,21922.2677198,21922.3727154,21923.8716754,NaN,NaN,NaN,NaN,NaN,NaN,1.74812660000316,251.747719817871,0.129884900001343,18.7047250548394,0.0140365000006568,2.021396430546,0.103803900001367,14.9488001232286,1.49896000000081,215.865236589682
205,205,113_m_f_f_a.jpg,21925.2011279,2,right,NaN,0.443168400001014,NaN,NaN,21924.0665798,21924.4996499,21924.6523724,21924.7579595,21926.2573205,NaN,NaN,NaN,NaN,NaN,NaN,2.19074069999988,315.488578422283,0.432924199998524,62.3454160604887,0.152576699998463,21.9725712782352,0.104323600000498,15.0236421225268,1.49936100000195,215.922984601717
206,206,081_y_m_h_a.jpg,21927.8792848,2,right,NaN,0.533823500001745,NaN,NaN,21926.4601097,21927.2058961,21927.2406111,21927.3454613,21928.8449699,NaN,NaN,NaN,NaN,NaN,NaN,2.38486019999982,343.443728522443,0.745658199997706,107.382240858632,0.0345052000011492,4.9690940130613,0.10364330000084,14.9256721164039,1.49950860000172,215.944240478372
207,207,034_y_f_f_a.jpg,21930.1572744,2,right,NaN,0.498472800001764,NaN,NaN,21929.1686438,21929.5046176,21929.5534932,21929.6588016,21931.1583371,NaN,NaN,NaN,NaN,NaN,NaN,1.98969330000182,286.53574141109,0.335802800000238,48.3589627938638,0.0487438000018301,7.01959486555315,0.104019399997924,14.9798342787376,1.49953550000282,215.948114347656
208,208,084_m_f_f_a.jpg,21932.6902231,2,right,NaN,0.443255899997894,NaN,NaN,21931.3623351,21932.1066928,21932.1414052,21932.2469672,21933.7465197,NaN,NaN,NaN,NaN,NaN,NaN,2.38418459999957,343.346435363257,0.744191400001,107.171006984267,0.0345589999997173,4.97684175110597,0.104141799998615,14.9974611034079,1.49955249999766,215.950562516992
209,209,025_y_m_h_a.jpg,21935.1850767,1,left,NaN,0.554328400001395,NaN,NaN,21933.9450486,21934.4836254,21934.5252442,21934.6307483,21936.129923,NaN,NaN,NaN,NaN,NaN,NaN,2.18487440000172,314.643772532194,0.538443400000688,77.5412365448303,0.0414879999989353,5.97468707330288,0.104089700002078,14.9899581826636,1.49917470000219,215.896155537882
210,210,056_m_m_h_a.jpg,21937.1510896,1,left,NaN,0.533501300000353,NaN,NaN,21936.3361012,21936.359531,21936.5122457,21936.6175883,21938.1172485,NaN,NaN,NaN,NaN,NaN,NaN,1.78114730000016,256.503030978412,0.023215799999889,3.34330746623798,0.15258310000354,21.9734929429961,0.103953300000285,14.9703152177694,1.4996601999992,215.966072394716
211,211,048_y_f_h_a.jpg,21939.5274878,1,left,NaN,0.470706999996764,NaN,NaN,21938.3169223,21938.8540034,21938.9513761,21939.0567808,21940.5561601,NaN,NaN,NaN,NaN,NaN,NaN,2.23923780000041,322.472646019499,0.536921899998561,77.3221253224293,0.0972516000001633,14.0052033695023,0.103974899997411,14.9734258334562,1.49937929999942,215.925619984438
212,212,057_y_m_h_a.jpg,21942.1593211,1,left,NaN,0.429633399999148,NaN,NaN,21940.7816009,21941.4229828,21941.6244194,21941.7296877,21943.229324,NaN,NaN,NaN,NaN,NaN,NaN,2.44772309999826,352.496615044344,0.641237799998635,92.3446585678592,0.201307200000883,28.9902508108114,0.103881700000784,14.9600041015074,1.49963629999911,215.962630555592
213,213,126_m_m_h_a.jpg,21944.7696351,1,left,NaN,0.338836400002037,NaN,NaN,21943.4340158,21944.0754539,21944.3255044,21944.4307987,21945.930421,NaN,NaN,NaN,NaN,NaN,NaN,2.49640519999957,359.507324492535,0.641296699999657,92.3531407572811,0.249896299999818,35.9875673282262,0.103931599998759,14.9671902004485,1.49962230000165,215.960614415892
214,214,006_m_f_h_a.jpg,21947.2498025,2,right,NaN,0.63756839999769,NaN,NaN,21946.1632475,21946.4996781,21946.5136455,21946.6122341,21948.1117579,NaN,NaN,NaN,NaN,NaN,NaN,1.94851039999776,280.604991789472,0.336299499998859,48.4304925629813,0.0138416999980109,1.99334328125662,0.0973101000017778,14.0136279550075,1.49952379999741,215.946429429821
215,215,008_y_m_h_a.jpg,21949.7472174,2,right,NaN,0.457016600001225,NaN,NaN,21948.4240445,21949.1711893,21949.1849316,21949.2902008,21950.789623,NaN,NaN,NaN,NaN,NaN,NaN,2.36557850000099,340.666970815702,0.74701080000159,107.577028791498,0.0136177000022144,1.96108504081747,0.103880799997569,14.9598744920402,1.4994222000023,215.931798014053
216,216,115_y_f_h_a.jpg,21952.443231,1,left,NaN,1.2346901000019,NaN,NaN,21950.9823885,21951.0058974,21951.1030816,21951.2085409,21952.708122,NaN,NaN,NaN,NaN,NaN,NaN,1.72573349999948,248.522889381923,0.0233373999981268,3.36081908255122,0.0970324000008986,13.973636376586,0.104070299999876,14.9871643882561,1.4995811000008,215.954681203577
217,217,049_y_m_f_a.jpg,21954.3643193,2,right,NaN,0.561052499997459,NaN,NaN,21952.9037812,21953.5453949,21953.6978065,21953.8032668,21955.302759,NaN,NaN,NaN,NaN,NaN,NaN,2.39897779999956,345.476804164235,0.641461800001707,92.3769168093461,0.152269499998511,21.9283314048096,0.104102299999795,14.9917727083936,1.49949219999689,215.9418787136
218,218,109_y_m_f_a.jpg,21956.9538492,2,right,NaN,0.581923800000368,NaN,NaN,21955.5279304,21956.1692356,21956.2664735,21956.3719254,21957.8715784,NaN,NaN,NaN,NaN,NaN,NaN,2.34364800000185,337.508759408565,0.641159400001925,92.3333681839674,0.0970985000021756,13.9831554380781,0.104081299999962,14.9887484983197,1.49965300000258,215.965035523169
219,219,123_y_m_h_a.jpg,21959.3910247,1,left,NaN,0.429015699999582,NaN,NaN,21958.0714806,21958.6067103,21958.8564248,21958.962009,21960.4614747,NaN,NaN,NaN,NaN,NaN,NaN,2.38999410000179,344.183061485665,0.535090699999273,77.0584142019932,0.249572100001387,35.9408792849405,0.104158800000732,14.9999092737921,1.49946570000247,215.938062449281
220,220,106_y_f_h_a.jpg,21962.2373964,1,left,NaN,1.05390049999914,NaN,NaN,21960.6646915,21961.0016192,21961.0780544,21961.1834959,21962.6827258,NaN,NaN,NaN,NaN,NaN,NaN,2.01803430000291,290.617128953399,0.336798200001795,48.5023103527295,0.0763096000009682,10.9893458519668,0.104028599998855,14.9811591709147,1.4992299000005,215.904104889897
221,221,087_m_m_h_a.jpg,21963.9862503,1,left,NaN,0.727978999999323,NaN,NaN,21962.8794501,21963.1114917,21963.152958,21963.2582713,21964.7576782,NaN,NaN,NaN,NaN,NaN,NaN,1.87822809999852,270.483637438859,0.231842499997583,33.3876395057205,0.0413196999979846,5.9504501893812,0.10393010000189,14.9669741858923,1.49940689999858,215.929594660445
222,222,052_m_f_h_a.jpg,21966.1816086,1,left,NaN,0.533724599998095,NaN,NaN,21964.9567585,21965.3898801,21965.5424756,21965.647884,21967.1475358,NaN,NaN,NaN,NaN,NaN,NaN,2.19077729999844,315.493849188247,0.432966199998191,62.3514644806365,0.152450599998701,21.9544116166816,0.10404650000055,14.9837369502421,1.49965179999708,215.964862710372
223,223,011_m_f_f_a.jpg,21968.6900791,2,right,NaN,0.547101100000873,NaN,NaN,21967.3682383,21968.0096316,21968.0375011,21968.142978,21969.6423202,NaN,NaN,NaN,NaN,NaN,NaN,2.27408189999915,327.490545022793,0.641224599999987,92.3427576359924,0.0277490999978909,3.99614802008876,0.10402669999894,14.980885551918,1.49934220000068,215.920277213447
224,224,031_y_m_h_a.jpg,21971.5774027,1,left,NaN,1.31819030000042,NaN,NaN,21969.8737648,21970.1058971,21970.1543388,21970.2592124,21971.7589542,NaN,NaN,NaN,NaN,NaN,NaN,1.88518939999994,271.486134284524,0.231981500000984,33.4076568968584,0.0483144999998331,6.95777137026376,0.103636700001516,14.9247216504704,1.49974179999845,215.977823610988
225,225,022_y_f_h_a.jpg,21973.3377028,2,right,NaN,0.478055299998232,NaN,NaN,21972.0782556,21972.7196125,21972.7543208,21972.8596475,21974.3593406,NaN,NaN,NaN,NaN,NaN,NaN,2.28108499999871,328.499061486385,0.641228399999818,92.3433048739858,0.0345785999998043,4.97966434720988,0.10405560000072,14.9850474413091,1.49969309999869,215.970810323797
226,226,093_m_f_h_a.jpg,21975.5666729,2,right,NaN,0.845933799999329,NaN,NaN,21974.5572979,21974.5805748,21974.6154885,21974.7207391,21976.2201721,NaN,NaN,NaN,NaN,NaN,NaN,1.66287419999935,239.470521295795,0.0231220999994548,3.32981372873854,0.0347627000010107,5.00617658924206,0.10383820000061,14.9537396662795,1.49943299999723,215.933353321372
227,227,085_y_f_f_a.jpg,21977.2227614,2,right,NaN,0.540420500001346,NaN,NaN,21976.4216458,21976.549383,21976.577128,21976.6823409,21978.1822898,NaN,NaN,NaN,NaN,NaN,NaN,1.76064399999814,253.550350649516,0.127612399999634,18.3774623189968,0.0275785999983782,3.9715943143639,0.103979399998934,14.9740738786966,1.49994890000016,216.007648083201
228,228,061_m_f_f_a.jpg,21979.776939,2,right,NaN,0.552280500000052,NaN,NaN,21978.3850043,21978.9231257,21979.1247085,21979.2246585,21980.7223324,NaN,NaN,NaN,NaN,NaN,NaN,2.3373281000022,336.598630580146,0.537993100002495,77.4763888399909,0.201450000000477,29.0108154394188,0.0986687000004167,14.2092799471466,1.49767390000125,215.680025322749
229,229,114_y_m_f_a.jpg,21982.1698852,2,right,NaN,0.456953900000372,NaN,NaN,21980.9177938,21981.4547466,21981.6075466,21981.7129313,21983.2124149,NaN,NaN,NaN,NaN,NaN,NaN,2.29462110000168,330.448395310931,0.536826300001849,77.3083579664571,0.152675699999236,21.9868282688081,0.103990499999782,14.9756723898704,1.49948360000053,215.940640228084
230,230,011_m_f_h_a.jpg,21985.6398321,1,left,NaN,1.33156410000083,NaN,NaN,21983.4339422,21984.1818087,21984.2095567,21984.308268,21985.8074273,NaN,NaN,NaN,NaN,NaN,NaN,2.3734850999972,341.805600318024,0.747739399997954,107.681954480372,0.0276276000004145,3.97865080488564,0.0973789999989094,14.0235502439157,1.4991592999977,215.893937783164
231,231,040_y_f_h_a.jpg,21987.365228,1,left,NaN,0.880744599999161,NaN,NaN,21986.0729178,21986.3028279,21986.3792966,21986.4844834,21987.9841252,NaN,NaN,NaN,NaN,NaN,NaN,1.91120740000042,275.232986585913,0.229758000001311,33.0874506515375,0.0763351000023249,10.9930181072811,0.103823000001285,14.9515507143058,1.49964180000097,215.963422610885
232,232,109_y_m_h_a.jpg,21989.7521749,1,left,NaN,0.755678800000169,NaN,NaN,21988.2565715,21988.7938043,21988.8910734,21988.9964961,21990.495777,NaN,NaN,NaN,NaN,NaN,NaN,2.23920550000184,322.467994496555,0.537075200001709,77.3442020565976,0.0971344999998109,13.9883397979055,0.104051100002835,14.9843993965926,1.49928089999958,215.911449400001
233,233,010_y_f_f_a.jpg,21992.1593562,2,right,NaN,0.79014410000309,NaN,NaN,21990.8144545,21991.2497591,21991.2637844,21991.3692121,21992.8687463,NaN,NaN,NaN,NaN,NaN,NaN,2.05429179999919,295.838571696931,0.435150799999974,62.66606873708,0.0138951000008092,2.0010334159086,0.104134100001829,14.9963522268349,1.4995342000002,215.947927134272
234,234,014_m_m_h_a.jpg,21994.474124,1,left,NaN,0.94277990000046,NaN,NaN,21993.069034,21993.405072,21993.4326565,21993.5313441,21995.0304643,NaN,NaN,NaN,NaN,NaN,NaN,1.96143030000167,282.465586649279,0.335908799999743,48.3742278542868,0.027455799998279,3.953909885777,0.0972813999978825,14.0094948673128,1.49912020000193,215.888306992591
235,235,073_m_f_f_a.jpg,21996.4278142,1,left,NaN,0.637353999998595,NaN,NaN,21995.2378018,21995.6710157,21995.6849016,21995.7904602,21997.2896921,NaN,NaN,NaN,NaN,NaN,NaN,2.05189029999747,295.492731670484,0.433043299999554,62.3625676521923,0.0137312999977439,1.97744457670338,0.103914299997996,14.9646988272579,1.49923189999754,215.90439290948
236,236,119_y_m_h_a.jpg,21998.8726732,1,left,NaN,0.436319500000536,NaN,NaN,21997.4861694,21998.1296621,21998.331139,21998.4363537,21999.9358554,NaN,NaN,NaN,NaN,NaN,NaN,2.44968599999993,352.779292282738,0.643358299999818,92.6500317829174,0.201352100000804,28.9967168600093,0.103902799997741,14.9630427121675,1.49950170000011,215.943246809108
237,237,070_m_m_h_a.jpg,22001.6106661,2,right,NaN,0.610045500001434,NaN,NaN,22000.1358815,22000.881426,22000.8952623,22001.0006206,22002.500052,NaN,NaN,NaN,NaN,NaN,NaN,2.36417050000091,340.464204729125,0.74539900000309,107.344913466199,0.0136916000010388,1.97172737999275,0.103985499998089,14.9749523396033,1.49943139999959,215.933122905706
238,238,104_m_m_f_a.jpg,22004.1251367,2,right,NaN,0.581570300000749,NaN,NaN,22002.7005069,22003.3406782,22003.4378648,22003.5435664,22005.0429771,NaN,NaN,NaN,NaN,NaN,NaN,2.34247020000112,337.339144424968,0.640024000000267,92.1698592244343,0.0970525000011548,13.9765309777167,0.104127400001744,14.9953873597913,1.49941070000204,215.930141898962
239,239,122_m_f_h_a.jpg,22006.6804864,1,left,NaN,0.325062899999466,NaN,NaN,22005.2540874,22006.0000986,22006.2499543,22006.3554235,22007.8549969,NaN,NaN,NaN,NaN,NaN,NaN,2.60090950000085,374.556989223018,0.74587640000027,107.413663842019,0.249708600000304,35.9605366504209,0.104097499999625,14.9910814603468,1.49957340000037,215.95357232648
240,240,132_y_f_h_a.jpg,22009.2890485,1,left,NaN,0.387659500000154,NaN,NaN,22008.0563956,22008.5951653,22008.7960592,22008.901389,22010.400941,22010.4054807,NaN,NaN,NaN,NaN,NaN,2.34454539999933,337.637993986387,0.538636699999188,77.5690736785157,0.20074509999904,28.9093027869248,0.103995299999951,14.9763636379172,1.49955200000113,215.95049051249
241,241,035_m_f_f_a.jpg,22193.9499761,2,right,NaN,0.84468840000045,NaN,22182.2759421,22192.4924342,22192.9364157,22192.9925106,22193.1052877,22194.6039834,NaN,NaN,NaN,NaN,NaN,NaN,2.11154919999899,304.094807971049,0.443792199999734,63.9127441776082,0.0554590999963693,7.98694359745499,0.110367499997665,15.8945781220966,1.4986957000001,215.834696676158
242,242,016_y_m_f_a.jpg,22196.3644929,2,right,NaN,0.637407000001986,NaN,NaN,22194.9287089,22195.5730639,22195.6147321,22195.7270859,22197.226709,NaN,NaN,NaN,NaN,NaN,NaN,2.29800009999963,330.946538743768,0.644173200002115,92.7706186314925,0.0414707999989332,5.97241824253369,0.110661500002607,15.9369185397608,1.49962310000046,215.968256209142
243,243,103_m_f_f_a.jpg,22199.068796,2,right,NaN,0.692915600000561,NaN,NaN,22197.4338628,22198.1800667,22198.2633786,22198.3758804,22199.8754052,NaN,NaN,NaN,NaN,NaN,NaN,2.44154239999989,351.618786472745,0.746039400000882,107.440881833212,0.0831498000006832,11.9748204133965,0.110948099998495,15.9781932449461,1.49952480000138,215.95409953245
244,244,082_m_m_f_a.jpg,22201.3886539,2,right,NaN,0.623398200001247,NaN,NaN,22200.075931,22200.6249019,22200.6663451,22200.7652557,22202.2646653,NaN,NaN,NaN,NaN,NaN,NaN,2.18873430000167,315.210621973182,0.548787200001243,79.0336015857114,0.0412644999996701,5.9427079432613,0.0973223000000871,14.0158733359571,1.49940960000094,215.937509001662
245,245,008_y_m_f_a.jpg,22203.7344521,2,right,NaN,0.794635900001595,NaN,NaN,22202.5837764,22202.818741,22202.8328948,22202.9398162,22204.4370974,NaN,NaN,NaN,NaN,NaN,NaN,1.85332100000232,266.906067642037,0.234571799999685,33.7818633240285,0.0137471000016376,1.97978893182257,0.1036260999972,14.9237152416114,1.49728120000145,215.630987425404
246,246,134_y_f_f_a.jpg,22205.962481,2,right,NaN,0.533699999999953,NaN,NaN,22204.6471421,22205.0804313,22205.3302743,22205.428781,22206.9284319,NaN,NaN,NaN,NaN,NaN,NaN,2.2812898000011,328.540004494321,0.433111900001677,62.3746205208239,0.249696599999879,35.9600617537226,0.0972820000024512,14.0100695308445,1.49965090000114,215.972259826897
247,247,029_m_f_f_a.jpg,22208.3869941,1,left,NaN,0.575129200002266,NaN,NaN,22207.1276297,22207.6647567,22207.7065426,22207.8118649,22209.3112491,NaN,NaN,NaN,NaN,NaN,NaN,2.18361939999886,314.473999528322,0.536972199999582,77.332064081075,0.0416358000002219,5.99618072162115,0.103923200000281,14.9665021055809,1.49938420000035,215.933851019976
248,248,108_m_m_f_a.jpg,22210.7665756,2,right,NaN,0.463868599999842,NaN,NaN,22209.5080782,22210.044689,22210.197322,22210.302707,22211.8020821,NaN,NaN,NaN,NaN,NaN,NaN,2.29400389999864,330.371025906126,0.536462600000959,77.2586740252226,0.152495100002852,21.9615854330628,0.104004400000122,14.9781961254781,1.49937510000018,215.932540483236
249,249,126_m_m_h_a.jpg,22213.4126049,1,left,NaN,0.415331700001843,NaN,NaN,22212.0006474,22212.6422142,22212.8917987,22212.9972732,22214.4966598,NaN,NaN,NaN,NaN,NaN,NaN,2.49601239999902,359.463284810708,0.641437099999166,92.3765791248655,0.24943390000044,35.9222290070911,0.104054100000212,14.9853536721664,1.49938660000043,215.934196656045
250,250,072_y_m_h_a.jpg,22215.8045984,2,right,NaN,0.845702199996595,NaN,NaN,22214.698861,22214.8256312,22214.8535278,22214.9588962,22216.4583428,NaN,NaN,NaN,NaN,NaN,NaN,1.75948179999978,253.391813034593,0.126626199999009,18.2360751872705,0.027755299997807,3.99718018553204,0.103990499999782,14.9761943166004,1.49944659999892,215.942837557246
251,251,073_m_f_f_a.jpg,22217.82627,1,left,NaN,0.505894300000364,NaN,NaN,22216.6639292,22217.20119,22217.2151628,22217.3203757,22218.8197879,NaN,NaN,NaN,NaN,NaN,NaN,2.15585869999995,310.476041661504,0.537095399999089,77.3498067319174,0.0138283000014781,1.99148295171978,0.10376929999984,14.9443381933779,1.49941219999891,215.937883440432
252,252,066_y_m_h_a.jpg,22220.2407488,1,left,NaN,0.45724379999956,NaN,NaN,22219.0230386,22219.6644077,22219.6782828,22219.783505,22221.2831858,NaN,NaN,NaN,NaN,NaN,NaN,2.26014719999876,325.49515245501,0.64122209999914,92.3456158947775,0.0137339000029897,1.97788793370514,0.103866900000867,14.9583940598338,1.49968079999962,215.976565875885
253,253,068_m_m_f_a.jpg,22222.7215096,2,right,NaN,0.346047300001374,NaN,NaN,22221.4829004,22222.0205066,22222.2700847,22222.3754623,22223.8751511,NaN,NaN,NaN,NaN,NaN,NaN,2.39225070000248,344.520041131985,0.537457400001585,77.4019401708374,0.249401999997644,35.9176349274341,0.104069099998014,14.9875138972046,1.49968880000233,215.977717996465
254,254,066_y_m_h_a.jpg,22225.0534014,2,right,NaN,0.512503099998867,NaN,NaN,22224.0852637,22224.4217548,22224.4367621,22224.5408983,22226.0402887,NaN,NaN,NaN,NaN,NaN,NaN,1.9550249999993,281.552971606662,0.336356899999373,48.4404469074629,0.0148770999985572,2.1425259081008,0.10284540000066,14.811282713148,1.49939039999663,215.934743912587
255,255,029_m_f_h_a.jpg,22227.2410485,2,right,NaN,0.623642999998992,NaN,NaN,22226.2382894,22226.4703765,22226.5118757,22226.6174055,22228.1168661,NaN,NaN,NaN,NaN,NaN,NaN,1.87857670000085,270.543267874563,0.231952199999796,33.4046015680971,0.0413724999998522,5.95826156584146,0.104082600002585,14.989458100682,1.49946060000002,215.944853767735
256,256,092_m_m_f_a.jpg,22230.0811456,1,left,NaN,0.873449900002015,NaN,NaN,22228.3153842,22229.0605906,22229.1089684,22229.2076957,22230.7072566,NaN,NaN,NaN,NaN,NaN,NaN,2.39187239999956,344.465560248118,0.745048799999495,107.298220550587,0.0482159000021056,6.94381397899638,0.0973580999998376,14.0210290737677,1.49956089999978,215.959298474572
257,257,064_m_f_h_a.jpg,22231.843406,1,left,NaN,0.554028300000937,NaN,NaN,22230.910426,22230.9339039,22231.1840042,22231.2893777,22232.7888878,NaN,NaN,NaN,NaN,NaN,NaN,1.8784618000027,270.526720548612,0.0232811000023503,3.35282816738198,0.249947799999063,35.9962383275453,0.103926899999351,14.9670349610344,1.49951010000223,215.951982511723
258,258,062_y_m_h_a.jpg,22233.9915796,1,left,NaN,0.40145709999706,NaN,NaN,22233.0029516,22233.2350624,22233.484572,22233.5901225,22235.0893878,NaN,NaN,NaN,NaN,NaN,NaN,2.0864361999993,300.47815868223,0.231975499998953,33.4079571180266,0.249369299999671,35.9129256364527,0.104163199997856,15.0010657109071,1.49926529999721,215.916727633211
259,259,101_y_f_h_a.jpg,22236.0428832,1,left,NaN,0.505460699998366,NaN,NaN,22235.3596342,22235.3832622,22235.4317912,22235.5374225,22237.0366004,NaN,NaN,NaN,NaN,NaN,NaN,1.67696620000061,241.508326949412,0.0234956000022066,3.38371938993372,0.048401100000774,6.97048556118416,0.104219699998794,15.0092025598782,1.49917789999745,215.90414072018
260,260,125_y_f_h_a.jpg,22238.5900183,1,left,NaN,0.457115100001829,NaN,NaN,22237.2403918,22237.8816631,22238.027805,22238.1329032,22239.6325666,NaN,NaN,NaN,NaN,NaN,NaN,2.39217479999934,344.509110391238,0.641114099998958,92.3300622721974,0.145998699998017,21.0260062327419,0.103707999998733,14.9355100722689,1.49966340000174,215.974060014778
261,261,106_y_f_h_a.jpg,22241.3278882,1,left,NaN,0.554107200001454,NaN,NaN,22239.8435098,22240.5919483,22240.6683999,22240.773781,22242.2733278,NaN,NaN,NaN,NaN,NaN,NaN,2.42981800000052,349.930296729582,0.748265599999286,107.761488078627,0.0763163000010536,10.9906937493535,0.103919599998335,14.9659836512154,1.49954680000155,215.957267862995
262,262,034_y_f_h_a.jpg,22243.5204779,2,right,NaN,0.43593470000269,NaN,NaN,22242.5944918,22242.9304206,22242.9790279,22243.0845432,22244.5841977,NaN,NaN,NaN,NaN,NaN,NaN,1.98970589999954,286.547542240319,0.335769400000572,48.3558380812425,0.0484393999977328,6.97600133615189,0.1040811999992,14.9892564791615,1.49965449999945,215.972778280739
263,263,101_y_f_f_a.jpg,22246.1769578,1,left,NaN,0.672054200000275,NaN,NaN,22244.8133198,22245.3507719,22245.3993655,22245.5049036,22247.0042816,NaN,NaN,NaN,NaN,NaN,NaN,2.19096179999906,315.531415437981,0.537290600001143,77.3779184648292,0.048445599997649,6.97689422928643,0.104069999997591,14.987643510665,1.49937800000043,215.932958126841
264,264,063_y_f_f_a.jpg,22248.8776707,2,right,NaN,0.589052299998002,NaN,NaN,22247.2358163,22247.9825077,22248.1838323,22248.2886184,22249.7884429,NaN,NaN,NaN,NaN,NaN,NaN,2.55262660000153,367.616580162863,0.74655200000052,107.514703934282,0.201189300001715,28.9742817974029,0.103402199998527,14.8914702780078,1.49982449999879,215.997260834664
265,265,123_y_m_f_a.jpg,22251.5090821,2,right,NaN,0.428340599999501,NaN,NaN,22249.9798356,22250.7246206,22250.9744131,22251.0807415,22252.5793235,NaN,NaN,NaN,NaN,NaN,NaN,2.59948789999908,374.365311390169,0.744656099999702,107.24166585083,0.249666599996999,35.9557413025984,0.105074799997965,15.1323498064799,1.49858199999653,215.818322167456
266,266,097_m_f_h_a.jpg,22254.0116369,2,right,NaN,0.547109199997067,NaN,NaN,22252.7731544,22253.3107212,22253.359279,22253.4645277,22254.9639288,NaN,NaN,NaN,NaN,NaN,NaN,2.19077439999819,315.504427022424,0.53742979999879,77.3979653557822,0.0484286999999313,6.97446037571547,0.103881700000784,14.9605254821719,1.49940109999807,215.936284873547
267,267,051_m_m_h_a.jpg,22256.0471587,2,right,NaN,0.554639599999064,NaN,NaN,22255.1692265,22255.2969196,22255.3874582,22255.4925191,22256.9923354,NaN,NaN,NaN,NaN,NaN,NaN,1.82310890000008,262.555071345768,0.127545700001065,18.3684970018105,0.090375399999175,13.0154153680478,0.103843100001541,14.9549665023681,1.4998162999982,215.996079911385
268,268,049_y_m_h_a.jpg,22258.593715,2,right,NaN,0.714246899999125,NaN,NaN,22257.1885719,22257.6214844,22257.7740086,22257.8794681,22259.3792373,NaN,NaN,NaN,NaN,NaN,NaN,2.19066540000131,315.488729385296,0.432777300000453,62.326433093735,0.15237100000013,21.9437131682361,0.104067699998268,14.987312276208,1.49976919999972,215.98929680399
269,269,098_y_f_f_a.jpg,22261.207493,2,right,NaN,0.741630800002895,NaN,NaN,22259.5798811,22260.3256454,22260.360648,22260.4658622,22261.9656018,NaN,NaN,NaN,NaN,NaN,NaN,2.38572070000009,343.579623027222,0.745610100002523,107.379056183796,0.0348501000007673,5.01893797573377,0.103820699998323,14.951740565375,1.49973959999988,215.985033959313
270,270,064_m_f_f_a.jpg,22263.2863393,2,right,NaN,0.533107900002506,NaN,NaN,22262.1635208,22262.3975985,22262.6477887,22262.7532314,22264.2523207,NaN,NaN,NaN,NaN,NaN,NaN,2.08879990000059,300.818566993813,0.233947299999272,33.6919259417011,0.250059800000599,36.0123680104151,0.104034899999533,14.9825885836146,1.49908930000311,215.891380989899
271,271,040_y_f_f_a.jpg,22265.3997123,1,left,NaN,0.408217399999558,NaN,NaN,22264.4804915,22264.816453,22264.8927293,22264.9914949,22266.4909047,NaN,NaN,NaN,NaN,NaN,NaN,2.01041320000149,289.52970453978,0.335791200002859,48.3589776090874,0.0761340999997628,10.9644542118591,0.0974066999988281,14.0280282037716,1.49940979999883,215.937537804363
272,272,058_m_m_f_a.jpg,22268.111103,1,left,NaN,0.679167499998584,NaN,NaN,22266.6920483,22267.125125,22267.3265072,22267.4319355,22268.9313182,NaN,NaN,NaN,NaN,NaN,NaN,2.23926990000109,322.488507602147,0.432928199999878,62.3481649607208,0.201241599999776,28.9818137828603,0.104004799999529,14.9782537314022,1.49938269999984,215.933634997367
273,273,117_m_f_f_a.jpg,22270.1775702,1,left,NaN,0.706815100002132,NaN,NaN,22269.1402711,22269.1638858,22269.3655619,22269.4707551,22270.9702659,NaN,NaN,NaN,NaN,NaN,NaN,1.82999479999853,263.546744396881,0.0234587999984797,3.37841963652674,0.201539400000911,29.0247014570661,0.103739500002121,14.9400465460017,1.49951080000028,215.95208332196
274,274,052_m_f_f_a.jpg,22272.7937218,2,right,NaN,0.721029299998918,NaN,NaN,22271.1744751,22271.8150437,22271.9674485,22272.0726925,22273.5722897,NaN,NaN,NaN,NaN,NaN,NaN,2.39781460000086,345.321326321824,0.640431299998454,92.2317288139781,0.152243500000623,21.925351252792,0.103838300001371,14.9542752302301,1.4995971999997,215.964526219919
275,275,092_m_m_h_a.jpg,22274.5733458,1,left,NaN,0.519393499998841,NaN,NaN,22273.7722296,22273.9001563,22273.9486477,22274.0539523,22275.5532968,NaN,NaN,NaN,NaN,NaN,NaN,1.78106720000142,256.500434926273,0.127783899999486,18.402801380216,0.0483586000009382,6.96436492270277,0.10390290000214,14.9635786008685,1.49934450000001,215.928133623488
276,276,119_y_m_f_a.jpg,22276.6706973,2,right,NaN,0.380945299999439,NaN,NaN,22275.7513959,22275.9831518,22276.1843589,22276.289752,22277.7893286,NaN,NaN,NaN,NaN,NaN,NaN,2.03793270000097,293.492925982976,0.231594299999415,33.3530585910787,0.201048800001445,28.9540476865415,0.103998400001728,14.9773320355676,1.49957659999927,215.961559510371
277,277,029_m_f_f_a.jpg,22279.0662828,1,left,NaN,0.596070599996892,NaN,NaN,22277.9875252,22278.3232553,22278.3649795,22278.4702122,22279.9700128,NaN,NaN,NaN,NaN,NaN,NaN,1.98248760000206,285.507998595487,0.335577900001226,48.3282592043082,0.041571899997507,5.98697816121907,0.10403540000334,14.9826605916747,1.49980059999871,215.993818875586
278,278,054_y_f_h_a.jpg,22281.6015248,1,left,NaN,0.568207799999072,NaN,NaN,22280.2444399,22280.7825499,22280.9302147,22281.033317,22282.5330037,NaN,NaN,NaN,NaN,NaN,NaN,2.28856379999706,329.587569775753,0.537978099997417,77.4769287930505,0.147543800001586,21.2485238462938,0.101796599999943,14.6602397562431,1.49968669999726,215.977415564184
279,279,117_m_f_h_a.jpg,22283.7579907,1,left,NaN,0.380558100001508,NaN,NaN,22282.7326648,22283.0708868,22283.2721795,22283.3774326,22284.8768407,NaN,NaN,NaN,NaN,NaN,NaN,2.14417589999721,308.793542942838,0.338084199996956,48.6892040574614,0.201165400001628,28.9708398383251,0.103769500001363,14.944366996602,1.49940810000044,215.937292979054
280,280,099_y_m_h_a.jpg,22286.5783078,1,left,NaN,1.01217650000035,NaN,NaN,22285.0759942,22285.4117665,22285.4603985,22285.5661313,22287.0652861,22287.0698168,NaN,NaN,NaN,NaN,NaN,1.98929190000126,286.487920020778,0.335610999998607,48.3330261012138,0.0484792999995989,6.98174753586417,0.104331000002276,15.0252314325116,1.49915480000345,215.900813973998
281,281,058_m_m_f_a.jpg,22331.8600211,2,right,NaN,0.415052100001049,NaN,22320.2905507,22330.4983113,22331.1381939,22331.3463093,22331.444969,22332.9439313,NaN,NaN,NaN,NaN,NaN,NaN,2.4456199999986,352.206022132985,0.639739700000064,92.1321280238552,0.207971900003031,29.951078096985,0.0973123000003397,14.014433185757,1.49896230000013,215.873091081467
282,282,072_y_m_f_a.jpg,22334.8882028,2,right,NaN,1.05371880000166,NaN,NaN,22333.1453828,22333.6942604,22333.7220929,22333.834484,22335.3340761,NaN,NaN,NaN,NaN,NaN,NaN,2.1886932999987,315.204717356785,0.548739499998192,79.0267320686439,0.0277012000005925,3.98938897315385,0.110996200000955,15.9851203679377,1.49959210000088,215.963791743469
283,283,031_y_m_f_a.jpg,22337.3602349,1,left,NaN,1.30391749999762,NaN,NaN,22335.56214,22335.9023262,22335.9576713,22336.0563174,22337.5559455,NaN,NaN,NaN,NaN,NaN,NaN,1.99380549999842,287.137946231104,0.340057499997783,48.9733889037444,0.0552263999998104,7.95343130194775,0.0972851000005903,14.0105159771498,1.49962809999852,215.96897628398
284,284,098_y_f_f_a.jpg,22339.2405082,2,right,NaN,0.796773000001849,NaN,NaN,22337.7559826,22338.2965534,22338.3382508,22338.4437352,22339.9427555,NaN,NaN,NaN,NaN,NaN,NaN,2.18677290000051,314.928150905632,0.540427500000078,77.8296791923563,0.0415536000000429,5.98434268665153,0.104030300000886,14.9819261147006,1.49902030000158,215.881443953047
285,285,057_y_m_h_a.jpg,22340.8716988,1,left,NaN,0.373750599999767,NaN,NaN,22340.1669159,22340.1912427,22340.3925262,22340.4979482,22341.9974189,NaN,NaN,NaN,NaN,NaN,NaN,1.83050299999741,263.619932831737,0.0241666000001715,3.4803534705082,0.201122100002976,28.9646039879954,0.104030799997417,14.9819981217129,1.49947069999689,215.946308319024
286,286,115_y_f_f_a.jpg,22343.8794837,1,left,NaN,0.741907899999205,NaN,NaN,22342.1895997,22342.9350075,22343.0323114,22343.1375758,22344.6372184,NaN,NaN,NaN,NaN,NaN,NaN,2.44761870000002,352.493864960954,0.745243199999095,107.326217071126,0.0971815999982937,13.9956104218716,0.103992800002743,14.9765255515813,1.49964259999979,215.971064502006
287,287,063_y_f_h_a.jpg,22346.1272311,1,left,NaN,0.401466799998161,NaN,NaN,22344.8816265,22345.418944,22345.6203355,22345.7257643,22347.2254268,NaN,NaN,NaN,NaN,NaN,NaN,2.34380030000102,337.542455630036,0.537155800000619,77.3585052395661,0.201267699998425,28.985572574783,0.104036100001395,14.982761401911,1.49966249999852,215.973930400794
288,288,082_m_m_h_a.jpg,22348.8582842,2,right,NaN,0.949842800000624,NaN,NaN,22347.4313834,22347.7682748,22347.8029818,22347.9084414,22349.4077556,NaN,NaN,NaN,NaN,NaN,NaN,1.97637220000252,284.627289119937,0.336763000002975,48.4989314090849,0.0345806000004814,4.98012592681955,0.104097499999625,14.9916039241082,1.49931420000212,215.923769968575
289,289,045_m_m_h_a.jpg,22350.7895862,1,left,NaN,0.5750283999987,NaN,NaN,22349.5995727,22350.0326783,22350.1092226,22350.2145578,22351.7140298,NaN,NaN,NaN,NaN,NaN,NaN,2.11445710000044,304.513589258522,0.432967699998699,62.3538535539849,0.0764089000003878,11.0040295404474,0.103971500000625,14.9734580312726,1.49947199999951,215.946495538932
290,290,028_y_f_f_a.jpg,22352.6545605,1,left,NaN,0.568688100000145,NaN,NaN,22351.91309,22351.9390943,22351.9809274,22352.0858724,22353.5857514,NaN,NaN,NaN,NaN,NaN,NaN,1.67266140000356,240.888371076039,0.0258015000035812,3.71580363316081,0.041668199999549,6.00084680829041,0.103684599998815,14.9321401207273,1.49987900000269,216.005109654014
